timestamp,ax,ay,az,label,subject_id
1781599324128,14450.597286321303,-5212.487784043271,-10586.704766069697,6,A
1781599324129,14514.698543548322,-4999.621042531578,-11077.924329190282,6,A
1781599324129,14506.685886394946,-4565.854852281333,-10715.54924164231,6,A
1781599324130,14162.141628799718,-3642.093521192849,-10014.957405716228,6,A
1781599324130,13837.629014087934,-2589.808874474663,-9882.08654028197,6,A
1781599324131,13901.730271314953,-1919.077821032155,-10300.831085892962,6,A
1781599324131,13829.616356934557,-1967.2740643932934,-9479.447554117556,6,A
1781599324131,13168.572141780924,-1015.3982580108122,-8972.122431550393,6,A
1781599324131,13040.369627326885,-1067.6108549853786,-9113.046076707938,6,A
1781599324131,12908.16078429616,-1565.6387030504743,-9004.333550443545,6,A
1781599324131,12795.983584148877,-2139.977269770706,-8561.43066566269,6,A
1781599324131,12439.420340823583,-2642.0214714492295,-8356.084782718839,6,A
1781599324131,12303.205169216168,-2878.9863346414927,-8706.380700681879,6,A
1781599324131,12307.211497792856,-2710.2994828775086,-8976.148821412036,6,A
1781599324132,12387.33806932663,-2557.6780455672374,-8923.805753210663,6,A
1781599324132,12499.515269473914,-2854.8882129609233,-8609.747344002419,6,A
1781599324132,12463.458312283716,-3433.243133294583,-8231.26669700787,6,A
1781599324132,12643.743098234707,-3642.093521192849,-9157.336365186024,6,A
1781599324132,13220.654413277876,-3959.385456653676,-10783.99786929026,6,A
1781599324132,13557.186013719727,-4983.555628077865,-11375.87717895195,6,A
1781599324132,13573.21132802648,-5140.193419001564,-10759.839530120395,6,A
1781599324132,13617.280942370056,-4682.32910707075,-9914.297659175123,6,A
1781599324133,13228.667070431255,-4352.988110769638,-9431.130875777826,6,A
1781599324133,13256.711370468074,-4300.775513795072,-10365.253323679268,6,A
1781599324133,13641.31891383019,-3967.418163880532,-11371.850789090306,6,A
1781599324133,13416.964513535622,-3642.093521192849,-10630.995054547782,6,A
1781599324133,12731.882326921857,-2987.4278822040537,-9076.808567953141,6,A
1781599324133,12916.173441449537,-2842.839152120639,-8988.22799099697,6,A
1781599324133,13316.806299118405,-3445.2921941348677,-9447.236435224402,6,A
1781599324133,13024.34431302013,-3766.6004832091226,-9117.072466569582,6,A
1781599324134,12848.06585564583,-3401.1123043871576,-9221.75860297233,6,A
1781599324134,12992.293684406623,-2605.874288928376,-9962.614337514853,6,A
1781599324134,12808.002569878943,-2324.7295359884024,-9455.28921494769,6,A
1781599324134,12419.38869794014,-2288.5823534675487,-8335.952833410618,6,A
1781599324134,12691.819041154971,-2593.825228088091,-8348.03200299555,6,A
1781599324135,13100.464555977216,-3240.45815985003,-9149.283585462736,6,A
1781599324135,13104.470884553904,-3549.7173880840005,-9479.447554117556,6,A
1781599324135,13128.508856014038,-3533.6519736302876,-9141.230805739448,6,A
1781599324136,12868.097498529272,-3497.504791109434,-8863.409905286,6,A
1781599324136,12912.167112872849,-4156.186783711657,-9386.840587299741,6,A
1781599324137,13096.458227400528,-4429.298829424774,-10538.388087729967,6,A
1781599324137,13352.863256308603,-4589.952973961902,-10932.974294171094,6,A
1781599324137,31641.753208892453,7430.993391028673,-23922.10798783512,6,A
1781599324138,4647.1112591640895,-2083.748319182711,-4196.8240556404335,6,A
1781599324138,15788.711030935325,-2481.367326912102,-8162.81806935992,6,A
1781599324138,21678.01403866769,-10405.633006205922,-13260.227634201412,6,A
1781599324138,11738.312839903063,-4043.7288825356677,-5670.482745002192,6,A
1781599324139,14927.350386947257,-4489.544133626197,-5078.603435340502,6,A
1781599324139,15568.362959217446,-5967.562263367771,-16819.55627189484,6,A
1781599324139,15295.932616002616,-6574.031658995428,-7953.445796554424,6,A
1781599324139,13352.863256308603,-1441.1317410342003,2015.8955008764885,6,A
1781599324139,13569.204999449792,-553.5175924665704,4105.591839069802,6,A
1781599324139,15095.616187168182,-1979.323125233578,687.1868465339194,6,A
1781599324140,18541.05876312045,-8622.372001843805,-15297.580904193352,6,A
1781599324140,13300.78098481165,3511.0322643227587,1061.6411036668253,6,A
1781599324140,13633.306256676811,-2031.5357222081445,-267.0675506757439,6,A
1781599324140,15828.77431670221,-6883.290887229398,3284.2083072943956,6,A
1781599324140,15540.318659180626,-5831.006240511213,385.2076069106082,6,A
1781599324141,14947.3820298307,-6031.823921182622,38.93807880921141,6,A
1781599324141,16013.06543122989,-1890.9633457381578,-3576.7600169472344,6,A
1781599324141,-933.7044481632487,-15606.81093559543,5015.555947801379,6,A
1781599324141,16453.761574665645,-4690.3618142976065,-814.6565718593481,6,A
1781599324141,15612.432573561022,-2983.4115285906255,-484.49260320452794,6,A
1781599324141,13549.173356566349,-3409.1450116140136,1053.588323943537,6,A
1781599324142,13216.648084701188,-5104.04623648071,3131.205492551918,6,A
1781599324142,14017.913800038925,-6232.641601854032,2603.7484206765344,6,A
1781599324142,15536.312330603936,-8686.633659658657,-194.59253316614922,6,A
1781599324142,14662.932700885804,-10012.03035208996,3779.454260276626,6,A
1781599324142,14638.894729425672,-10064.242949064526,3755.295921106761,6,A
1781599324142,13108.477213130594,-8289.014651929265,3284.2083072943956,6,A
1781599324142,12691.819041154971,-7104.190335967949,1564.9398363723437,6,A
1781599324143,13312.799970541717,-7566.071001512191,5277.271288808249,6,A
1781599324143,13072.420255940395,-9357.364713101164,5132.3212537890595,6,A
1781599324143,12191.027969068884,-7433.531332269061,4649.154470391762,6,A
1781599324143,13140.527841744102,-8574.175758482666,4653.180860253406,6,A
1781599324144,14246.27452891018,-7803.035864704454,5917.467276809669,6,A
1781599324144,14182.173271683161,-8638.437416297518,5212.849051021943,6,A
1781599324144,13461.034127879198,-6999.765142018816,4178.066856579397,6,A
1781599324144,13304.787313388339,-6718.620389078843,3320.4458160491927,6,A
1781599324144,14037.945442922368,-6959.601605884534,2736.619286110791,6,A
1781599324145,14582.80612935203,-7011.814202859101,3368.7624943889227,6,A
1781599324145,15027.508601364474,-5047.8172858927155,5128.2948639274155,6,A
1781599324145,16233.413502947767,-3453.3249013617237,6980.434200283724,6,A
1781599324145,15724.609773708306,-7634.34901294047,4025.064041836919,6,A
1781599324145,14927.350386947257,-8260.900176635269,3622.4250556725037,6,A
1781599324145,14666.939029462492,-5782.809997150074,5116.215694342483,6,A
1781599324145,14494.666900664879,-4417.249768584489,5027.635117386312,6,A
1781599324146,14446.590957744615,-5124.128004547852,4021.037651975275,6,A
1781599324146,14614.85675796554,-5136.177065388136,4822.28923444246,6,A
1781599324146,14430.56564343786,-4385.118939677064,4407.571078693113,6,A
1781599324146,14971.420001290831,-6284.854198828598,6034.232582797349,6,A
1781599324146,15656.502187904598,-5602.074084545806,5547.039409538407,6,A
1781599324147,14638.894729425672,-4377.086232450208,4560.57389343559,6,A
1781599324147,14190.18592883654,-3911.1892132925377,5055.819846417821,6,A
1781599324150,14226.242886026737,-4003.565346401386,5394.03659479593,6,A
1781599324172,14065.98974295919,-3883.07473799854,5241.033780053452,6,A
1781599324193,14694.983329499313,-5686.417510427797,5088.030965310974,6,A
1781599324215,14943.375701254012,-3356.9324146394474,6477.135467578206,6,A
1781599324236,14831.198501106728,-3224.392745396317,5977.863124734331,6,A
1781599324258,15235.837687352285,-2489.4000341389583,6203.340956986403,6,A
1781599324281,15227.825030198908,-3931.2709813596784,5067.899016002753,6,A
1781599324302,16073.160359880221,-4128.07230841766,5599.382477739781,6,A
1781599324324,14498.673229241567,-1633.9167144787536,5534.960239953474,6,A
1781599324345,14875.268115450304,-2545.6289847269527,5534.960239953474,6,A
1781599324367,15203.787058738775,-2565.710752794094,5675.8838851110195,6,A
1781599324388,17279.065261463515,-1344.7392543119238,7097.199506271404,6,A
1781599324410,15159.7174443952,-1577.687763890759,6666.37579107548,6,A
1781599324431,15307.951601732682,-2818.7410304400696,4568.626673158879,6,A
1781599324453,16321.55273163492,-3111.9348442203277,5619.514427048001,6,A
1781599324475,12679.800055424905,-3059.722247245761,3131.205492551918,6,A
1781599324496,16009.059102653202,-3714.3878862345564,5450.406052858948,6,A
1781599324518,19174.058678237263,-4658.230985390181,6601.953553289174,6,A
1781599324539,17291.08424719358,-4019.6307608550987,5808.754750545277,6,A
1781599324562,13569.204999449792,-1260.395828429932,5454.432442720592,6,A
1781599324582,14250.280857486869,-1525.4751669161924,6287.895144080931,6,A
1781599324604,13525.135385106218,-2770.5447870789317,5748.358902620615,6,A
1781599324626,13220.654413277876,-810.5642237259746,6968.355030698792,6,A
1781599324647,13885.704957008198,-754.3352731379798,7983.005275833118,6,A
1781599324669,13268.73035619814,2061.1286098751816,10523.657278530576,6,A
1781599324690,12667.781069694838,1077.121974585275,8735.940179960575,6,A
1781599324712,13020.337984443442,141.31158265650663,7451.52181409609,6,A
1781599324734,12988.287355829932,1426.5447389535275,7741.421884134468,6,A
1781599324755,13589.236642333235,2346.2897164285832,8860.758265671542,6,A
1781599324778,15319.970587462747,1269.906948029828,11183.985215840217,6,A
1781599324799,14634.888400848982,3482.917789028761,12689.855024095128,6,A
1781599324820,14763.09091530302,-2019.4866613678598,9686.168187308593,6,A
1781599324842,13332.83161342516,-1063.5945013719506,8526.567907155079,6,A
1781599324863,13673.369542443697,-1147.9379272539425,5957.73117542611,6,A
1781599324885,13328.825284848472,-790.4824556588336,8160.16642974546,6,A
1781599324906,12415.382369363451,518.8488223187566,8075.612242650933,6,A
1781599324928,15179.749087278644,-2955.2970532966283,7676.999646348162,6,A
1781599324950,14466.622600628058,-1633.9167144787536,7689.078815933094,6,A
1781599324972,13889.711285584886,-2007.4376005275753,9021.813860137308,6,A
1781599324993,13929.774571351774,-1569.6550566639025,9198.97501404965,6,A
1781599325015,13533.148042259594,-1240.314060362791,8941.286062904426,6,A
1781599325036,14474.635257781436,-1505.3933988490514,7515.944051882396,6,A
1781599325058,14859.24280114355,-1774.4890909487403,6610.006333012462,6,A
1781599325080,15059.559229977984,-1806.6199198561658,6924.064742220706,6,A
1781599325101,12575.635512431,-529.4194707860012,10181.414140290823,6,A
1781599325123,14923.344058370569,-1609.8185927981845,6775.088317339872,6,A
1781599325145,15616.43890213771,-1256.3794748165037,5603.408867601425,6,A
1781599325165,15271.894644542484,-645.8937255754187,6219.44651643298,6,A
1781599325188,16081.173017033598,-1874.8979312844451,7995.08444541805,6,A
1781599325209,11966.673568774318,-1260.395828429932,8248.747006701631,6,A
1781599325230,15396.090830419833,-1172.0360489345117,3642.5570049807247,6,A
1781599325252,16161.299588567372,856.2225258467246,3843.876498062932,6,A
1781599325274,14771.103572456397,-1111.7907447330888,4053.248770868428,6,A
1781599325296,15644.483202174531,-2011.4539541410036,5667.831105387731,6,A
1781599325317,13957.818871388596,-1886.9469921247296,6497.267416886426,6,A
1781599325339,16217.388188641013,-2356.860364895828,3888.1667865410177,6,A
1781599325360,14178.166943106473,-1621.867653638469,4234.436314642415,6,A
1781599325382,16245.432488677834,-2356.860364895828,4125.723788378023,6,A
1781599325404,15736.62875943837,-2380.958486576397,5228.95461046852,6,A
1781599325425,16181.331231450815,-762.3679803648363,3964.668193912257,6,A
1781599325448,17315.122218653712,-1730.3092012010302,3739.1903616601844,6,A
1781599325469,15704.578130824862,-2449.2364980046764,4741.761437209578,6,A
1781599325491,15596.407259254267,-3087.8367225397587,5422.221323827439,6,A
1781599325512,15368.046530383011,-2597.8415817015193,5200.769881437011,6,A
1781599325533,15600.413587830955,-1794.5708590158813,4395.49190910818,6,A
1781599325555,16293.508431598098,-1674.0802506130356,3602.293106364283,6,A
1781599325577,16137.26161710724,-2356.860364895828,4214.304365334194,6,A
1781599325598,15932.938859696116,-2188.1735131318437,4576.679452882167,6,A
1781599325620,14959.401015560767,-2075.7156119558545,4488.098875925996,6,A
1781599325641,14995.457972750964,-2433.1710835509634,5192.717101713722,6,A
1781599325663,15311.95793030937,-3075.787661699474,4769.946166241087,6,A
1781599325685,15095.616187168182,-2633.988764222373,5257.139339500029,6,A
1781599325706,15231.831358775597,-2224.3206956526974,5043.740676832888,6,A
1781599325727,15267.888315965794,-1959.241357166437,4798.130895272596,6,A
1781599325750,15836.786973855587,-2280.5496462406923,4810.210064857528,6,A
1781599325771,16237.419831524458,-2794.6429087595006,4532.389164404081,6,A
1781599325792,15812.749002395456,-2923.166224389203,4874.632302643834,6,A
1781599325814,16485.812203279154,-2031.5357222081445,3928.4306851574593,6,A
1781599325836,16565.93877481293,-2388.9911938032533,3690.8736833204543,6,A
1781599325857,16425.717274628823,-2786.610201532644,4121.697398516379,6,A
1781599325879,15960.983159732938,-3107.9184906068995,4431.729417862978,6,A
1781599325900,14394.508686247662,-3867.0093235448276,5365.851865764421,6,A
1781599325923,15412.116144726588,-3156.114733968038,4242.489094365703,6,A
1781599325944,14735.0466152662,-2718.332190104365,4359.254400353383,6,A
1781599325966,15504.261701990428,-3457.341254975152,4665.260029838339,6,A
1781599325989,15752.654073745125,-3087.8367225397587,4250.541874088991,6,A
1781599326010,15055.552901401295,-2959.3134069100565,4403.544688831469,6,A
1781599326032,15660.508516481286,-2200.2225739721284,4113.644618793091,6,A
1781599326054,15564.356630640757,-2007.4376005275753,3807.6389893081346,6,A
1781599326075,15596.407259254267,-2031.5357222081445,4089.486279623225,6,A
1781599326097,15708.58445940155,-2236.369756492982,4218.330755195838,6,A
1781599326118,16289.50210302141,-2991.444235817482,4250.541874088991,6,A
1781599326141,16533.88814619942,-3071.771308086046,3775.4278704149815,6,A
1781599326161,15844.799631008966,-3011.526003884623,4178.066856579397,6,A
1781599326182,15756.660402321815,-3007.509650271195,4109.618228931446,6,A
1781599326205,15800.73001666539,-3320.7852321185937,4041.1696012834955,6,A
1781599326227,15864.831273892409,-3678.2407037137027,4190.146026164329,6,A
1781599326248,15712.590787978239,-4164.219490938513,4339.122451045162,6,A
1781599326269,14899.306086910436,-4602.002034802186,5011.529557939735,6,A
1781599326291,15227.825030198908,-5071.915407573285,4451.861367171198,6,A
1781599326313,14895.299758333747,-5373.141928580399,4556.547503573946,6,A
1781599326334,15047.540244247917,-4999.621042531578,4198.198805887617,6,A
1781599326356,14682.964343769247,-5140.193419001564,4174.040466717753,6,A
1781599326377,14422.552986284483,-6381.246685550875,4467.966926617775,6,A
1781599326400,13957.818871388596,-6686.489560171417,4729.682267624645,6,A
1781599326421,14094.03404299601,-7594.1854768061885,4463.940536756131,6,A
1781599326442,13493.084756492708,-8795.075207221218,5204.796271298655,6,A
1781599326465,13080.432913093773,-8132.376861005566,4266.647433535568,6,A
1781599326486,12735.888655498546,-9092.285374614903,4423.676638139689,6,A
1781599326507,12808.002569878943,-9803.179964191693,4000.905702667054,6,A
1781599326529,12110.901397535112,-10670.712344692181,4822.28923444246,6,A
1781599326551,10652.59779562043,-9546.13333293229,4931.001760706852,6,A
1781599326572,10304.047209448514,-9999.981291249675,5124.268474065771,6,A
1781599326593,11758.344482786506,-12482.087824348297,4310.937722013653,6,A
1781599326615,10985.12306748559,-12457.989702667726,4749.814216932866,6,A
1781599326638,10147.800394957656,-11743.078759477508,4584.7322326054555,6,A
1781599326658,9266.408108086145,-10992.020633766437,5579.25052843156,6,A
1781599326680,9386.597965386805,-10690.794112759324,4560.57389343559,6,A
1781599326702,8336.93987829437,-9678.67300217542,4737.735047347933,6,A
1781599326724,8693.503121619662,-12807.41246703598,5687.963054695952,6,A
1781599326746,8545.26896428218,-15381.89513324345,6799.2466565097375,6,A
1781599326767,8088.54750653967,-15124.848501984046,6171.12983809325,6,A
1781599326789,8312.901906834237,-15763.448726519127,5482.617171752101,6,A
1781599326810,8409.053792674766,-17719.412936258654,6014.100633489128,6,A
1781599326831,8188.7057209568875,-17627.036803149807,6332.185432559017,6,A
1781599326854,7331.351405545509,-15357.797011562881,5506.775510921966,6,A
1781599326875,6798.509704845914,-16928.1912744133,5989.942294319263,6,A
1781599326897,6982.800819373593,-17859.98531272864,4314.964111875298,6,A
1781599326917,6702.357819005385,-19253.660016588223,4415.623858416401,6,A
1781599326940,4915.535273802232,-16044.593479459101,5039.714286971244,6,A
1781599326961,4294.5543444154855,-12779.297991741982,3731.137581936896,6,A
1781599326983,3477.2633147709935,-13490.192581318772,4081.433499899937,6,A
1781599327005,3409.155728967286,-12674.87279779285,2772.8567948655887,6,A
1781599327026,2928.396299764644,-9783.098196124552,2249.426112851849,6,A
1781599327048,1686.4344409911514,-5557.894194798096,4290.805772705433,6,A
1781599327069,1462.080040696585,-2224.3206956526974,3336.551375495769,6,A
1781599327091,1409.997769199632,-1529.4915205296206,2788.962354312165,6,A
1781599327112,2079.0546415066424,-2312.6804751481177,3360.7097146656342,6,A
1781599327134,1029.396554414207,-6080.02016454376,2821.1734732053183,6,A
1781599327156,-1871.185335108401,-13036.344623001387,3606.319496225927,6,A
1781599327178,-4859.90645331816,-21506.834393721438,5691.9894445575965,6,A
1781599327199,-3710.0901518085075,-26230.06624311299,3098.9943736587647,6,A
1781599327221,-120.41974709544559,-31844.9285946856,-375.7800769401359,6,A
1781599327243,2227.288798844124,-32495.577880060966,-1527.3275773703626,6,A
1781599327263,1906.782512709029,-29467.247255536113,-1060.2663534196413,6,A
1781599327285,1982.9027556661142,-24912.702257908542,-923.3690981237402,6,A
1781599327308,2543.78875640253,-24366.47816648231,-875.0524197840103,6,A
1781599327329,2848.26972823087,-23796.155953375506,-923.3690981237402,6,A
1781599327350,2888.333013997757,-22205.679922457944,-637.4954179470056,6,A
1781599327371,2607.890013629549,-20703.5636710358,-77.82722717846892,6,A
1781599327394,2407.5735847951146,-17952.36144583749,155.70338479689173,6,A
1781599327415,2387.5419419116715,-14377.806729886403,518.0784723448651,6,A
1781599327437,2331.4533418380297,-12674.87279779285,848.2424409996853,6,A
1781599327458,2643.946970819747,-9767.03278167084,723.4243552887167,6,A
1781599327479,2455.649527715379,-7795.003157477598,1250.8814271641002,6,A
1781599327501,1277.7889261689056,-7867.297522519305,2901.7012704382014,6,A
1781599327523,696.8712825490462,-5361.092867740114,3449.2902916218054,6,A
1781599327544,384.37765356732876,-1011.381904397384,3670.741734012234,6,A
1781599327566,-713.356376445371,-1079.6599158256633,4914.896201260276,6,A
1781599327587,-653.2614477950407,32.87003509394548,5096.083745034262,6,A
1781599327609,-264.64757585623823,-2457.269205231533,3698.926463043743,6,A
1781599327631,-2788.63457917011,-10373.502177298496,3368.7624943889227,6,A
1781599327652,-4687.634324520546,-22020.92765624025,3384.8680538354993,6,A
1781599327674,-3277.4066655261295,-26069.412098575864,2780.9095745888767,6,A
1781599327695,-1154.0525198811263,-27290.383597058033,731.4771350120051,6,A
1781599327718,-745.4070050588805,-30403.05764746488,735.5035248736492,6,A
1781599327739,-180.51467574577586,-30583.79356006915,771.7410336284465,6,A
1781599327760,1189.6496974817544,-26989.15707605092,131.54504562702684,6,A
1781599327782,1329.8711976658585,-24772.12988143856,131.54504562702684,6,A
1781599327803,1438.042069236453,-25065.323695218816,445.60345483527044,6,A
1781599327826,1538.20028365367,-23370.422470352118,807.9785423832438,6,A
1781599327846,1574.2572408438682,-20840.11969389236,960.9813571257215,6,A
1781599327868,2034.9850271630671,-18615.05979205314,208.04645299826566,6,A
1781599327891,1233.71931182533,-16466.31060886906,1138.142511038064,6,A
1781599327911,1033.4028829908957,-14100.678330559856,1170.3536299312173,6,A
1781599327934,1542.2066122303588,-12988.148379640248,1130.0897313147757,6,A
1781599327955,1694.4470981445288,-10228.913447215082,1049.5619340818928,6,A
1781599327976,1021.3838972608297,-8991.8765342792,2788.962354312165,6,A
1781599327998,857.1244256165936,-5790.842704376931,3352.6569349423457,6,A
1781599328019,901.1940399601691,-2939.2316388429153,4113.644618793091,6,A
1781599328041,1297.820569052349,-3569.7991561511412,3666.7153441505898,6,A
1781599328063,1325.8648690891698,-4340.939049929354,2901.7012704382014,6,A
1781599328085,1141.5737545614902,-6919.438069750252,2744.6720658340796,6,A
1781599328106,-224.5842900893514,-11638.653565528377,2998.334627117661,6,A
1781599328127,260.1814676899795,-15980.33182164425,1343.4883939819156,6,A
1781599328150,897.1877113834804,-21153.395275739756,340.91731843252256,6,A
1781599328170,941.257325727056,-24623.524797741713,-311.35783915382956,6,A
1781599328192,560.6561109416309,-24916.718611521974,-303.30505943054123,6,A
1781599328214,869.1434113466596,-24772.12988143856,-198.6189230277934,6,A
1781599328235,1966.8774413593594,-24225.905790012323,-1382.3775423511731,6,A
1781599328257,2415.586241948492,-25045.241927151674,-1764.8845792073673,6,A
1781599328279,1157.599068868245,-25406.71375236021,-786.4718428278392,6,A
1781599328301,27.814410242035763,-25161.71618194109,884.4799497544827,6,A
1781599328322,853.1180970399049,-23233.866447495562,-375.7800769401359,6,A
1781599328343,1209.681340365198,-21546.99792985572,-420.07036541822157,6,A
1781599328366,1057.440854451028,-18309.8169174326,-122.11751565655454,6,A
1781599328387,424.4409393342156,-15273.453585680889,1206.5911386860146,6,A
1781599328408,424.4409393342156,-12594.545725524285,1673.652362636736,6,A
1781599328430,1257.757283285462,-11188.821960824418,1484.4120391394608,6,A
1781599328452,2079.0546415066424,-9883.507036460256,1331.4092243969833,6,A
1781599328473,1698.4534267212175,-8521.9631615081,2104.47607783266,6,A
1781599328494,1077.4724973344712,-6806.980168574263,2434.64004648748,6,A
1781599328517,1954.8584556292933,-6361.164917483734,1351.5411737052038,6,A
1781599328538,1954.8584556292933,-7260.828126891649,558.3423709613066,6,A
1781599328559,604.7257252852064,-7847.215754452164,2120.5816372792365,6,A
1781599328581,552.6434537882535,-7296.975309412503,1782.3648889011279,6,A
1781599328602,781.0041826595086,-11056.282291581289,1170.3536299312173,6,A
1781599328625,-917.6791338564939,-16747.455361809032,1399.8578520449337,6,A
1781599328646,-3585.893965931158,-22780.018489178176,3743.2167515218284,6,A
1781599328667,-2932.8624079309025,-23571.24015102353,2414.5080971792595,6,A
1781599328689,-1490.5841203229759,-25322.37032647822,1118.0105617298434,6,A
1781599328711,-945.7234338933147,-26394.736741263547,-41.58971842367157,6,A
1781599328732,-673.2930906784842,-27370.710669326596,-254.98838109081146,6,A
1781599328754,-172.50201859239849,-25591.466018577907,-685.8120962867354,6,A
1781599328776,83.90301031567735,-24065.251645475197,-299.2786695688971,6,A
1781599328798,592.7067395551404,-23547.14202934296,-814.6565718593481,6,A
1781599328819,300.24475345686636,-22145.43461825652,-371.7536870784918,6,A
1781599328841,372.35866783726266,-20197.50311574385,-41.58971842367157,6,A
1781599328861,376.36499641395136,-18104.98288314776,6.726959916058218,6,A
1781599328883,789.0168398128859,-16482.376023322773,332.8645387092343,6,A
1781599328905,628.7636967453385,-14976.243418287202,944.875797679145,6,A
1781599328927,913.2130256902352,-13586.58506804105,981.1133064339423,6,A
1781599328948,781.0041826595086,-11823.405831746073,1335.4356142586273,6,A
1781599328970,31.82073881872445,-12245.122961156034,2084.344128524439,6,A
1781599328991,-1522.6347489364855,-11389.639641495829,3433.184732175229,6,A
1781599329013,-1630.80562050708,-9746.951013603699,3634.5042252574362,6,A
1781599329036,-789.476619402456,-7955.657302014725,3034.572135872458,6,A
1781599329057,111.94731035249815,-6027.807567569194,3211.733289784801,6,A
1781599329078,67.87769600892261,-5473.550768916104,3783.48065013827,6,A
1781599329099,476.5232108311685,-7027.879617312813,3364.7361045272783,6,A
1781599329121,1830.662269751944,-8425.570674785824,1311.2772750887625,6,A
1781599329142,2239.30778457419,-11875.61842872064,-142.24946496477529,6,A
1781599329164,672.8333110889141,-17751.54376516608,747.5826944585816,6,A
1781599329186,-613.1981620281539,-21555.03063708258,1597.150955265497,6,A
1781599329207,-92.37544705862479,-21952.64964481197,747.5826944585816,6,A
1781599329229,-52.31216129173794,-23888.532086484356,912.6646787859917,6,A
1781599329250,328.28905349368716,-26595.554421934958,1343.4883939819156,6,A
1781599329272,-1166.0715056111924,-26334.491437062123,2982.229067671084,6,A
1781599329294,-1843.1410350715803,-25643.678615552475,3497.6069699615355,6,A
1781599329316,-184.52100432246453,-23856.40125757693,2168.898315618966,6,A
1781599329337,768.9851969294425,-21924.53516951797,1182.4327995161498,6,A
1781599329359,1293.8142404756602,-19643.246317090758,703.292405980496,6,A
1781599329380,1281.7952547455943,-17884.08343440921,1085.79944283669,6,A
1781599329401,1506.1496550401605,-15667.056239796852,1577.0190059572762,6,A
1781599329424,1574.2572408438682,-14421.986619634112,1653.5204133285151,6,A
1781599329445,1682.4281124144627,-14044.449379971862,2032.001060323065,6,A
1781599329467,648.795339628782,-13542.405178293338,3074.8360344888997,6,A
1781599329488,364.3460106838853,-11164.72383914385,3187.574950614936,6,A
1781599329509,817.0611398497067,-9670.640294948564,3332.524985634125,6,A
1781599329531,1938.8331413225385,-7220.664590757367,2511.1414538587187,6,A
1781599329552,1866.7192269421423,-6321.001381349452,2680.249828047773,6,A
1781599329575,913.2130256902352,-6505.753647567149,2680.249828047773,6,A
1781599329596,2451.6431991386903,-7654.430781007612,1198.5383589627263,6,A
1781599329617,1606.3078694573778,-10747.023063347318,2019.9218907381328,6,A
1781599329640,172.04223900282844,-11992.092683510056,2869.4901515450483,6,A
1781599329661,-1150.0461913044376,-14554.526288877243,3638.5306151190807,6,A
1781599329682,-2067.4954353661465,-17273.597685168126,4367.307180076671,6,A
1781599329704,-609.1918334514652,-19819.9658760816,3058.730475042323,6,A
1781599329725,220.11818192309266,-21908.469755064256,3251.997188401242,6,A
1781599329747,276.20678199673426,-24920.7349651354,3630.477835395792,6,A
1781599329769,115.95363892918684,-26342.52414428898,4133.776568101311,6,A
1781599329790,785.0105112361972,-24326.314630348028,3078.8624243505437,6,A
1781599329812,1261.7636118621508,-24527.13231101944,2897.674880576557,6,A
1781599329834,2535.7760992491526,-23743.94335640094,1983.6843819833352,6,A
1781599329855,3128.712728599078,-21739.782903300274,1275.0397663339652,6,A
1781599329878,2411.5799133718033,-20277.830188012413,1774.3121091778396,6,A
1781599329899,2071.041984353265,-19201.447419613658,2245.399722990205,6,A
1781599329921,2187.225513077237,-17884.08343440921,2217.214993958696,6,A
1781599329943,1802.6179697151233,-15763.448726519127,2402.428927594327,6,A
1781599329965,1878.7382126722082,-13462.078106024775,2390.3497580093945,6,A
1781599329986,1814.6369554451894,-11461.934006537536,2470.877555242277,6,A
1781599330008,1506.1496550401605,-10084.324717131667,2648.03870915462,6,A
1781599330029,1446.0547263898302,-9622.444051587425,3207.7068999231565,6,A
1781599330051,1558.2319265371134,-9674.656648561991,3686.8472934588103,6,A
1781599330072,2051.010341469822,-8493.848686214104,3199.6541201998684,6,A
1781599330093,1770.5673411016137,-7060.010446220239,3368.7624943889227,6,A
1781599330115,1017.377568684141,-6373.213978324018,3968.694583773901,6,A
1781599330137,472.5168822544798,-9072.203606547762,4653.180860253406,6,A
1781599330158,352.32702495381926,-10718.90858805332,4363.280790215027,6,A
1781599330180,368.352339260574,-9726.869245536558,4600.8377920520325,6,A
1781599330202,180.05489615620579,-13168.884292244516,3558.0028178861976,6,A
1781599330223,-292.69187589305903,-19522.755708687913,4218.330755195838,6,A
1781599330245,-629.2234763349086,-21563.063344309434,5128.2948639274155,6,A
1781599330267,-837.5525623227202,-24442.788885137445,5615.488037186357,6,A
1781599330288,-276.6665615863043,-27081.533209159767,5418.194933965794,6,A
1781599330310,640.7826824754046,-28921.02316410988,5365.851865764421,6,A
1781599330331,1013.3712401074523,-27647.839068653142,4608.8905717753205,6,A
1781599330353,-4.236218371473718,-25045.241927151674,4701.497538593136,6,A
1781599330375,-392.8500903102762,-23310.177166150697,5059.846236279465,6,A
1781599330397,929.2383399969899,-18984.564324488536,3368.7624943889227,6,A
1781599330417,2211.263484537369,-16201.231270382801,2623.880369984755,6,A
1781599330439,2804.2001138872947,-14735.262201481512,3191.60134047658,6,A
1781599330461,3156.7570286358987,-13658.879433082757,2897.674880576557,6,A
1781599330482,2692.0229137400115,-12530.284067709434,3336.551375495769,6,A
1781599330504,2327.447013261341,-11421.770470403253,3445.2639017601614,6,A
1781599330526,1918.8014984390952,-10642.597869398185,3743.2167515218284,6,A
1781599330547,805.0421541196407,-11988.076329896629,3799.5862095848465,6,A
1781599330569,272.20045342004556,-12064.387048551764,4186.119636302685,6,A
1781599330590,608.7320538618951,-9590.313222679999,3932.4570750191033,6,A
1781599330612,-629.2234763349086,-8477.78327176039,5180.6379321287895,6,A
1781599330633,-597.1728477213991,-8156.474982686135,5168.5587625438575,6,A
1781599330655,1189.6496974817544,-8586.224819322952,4576.679452882167,6,A
1781599330676,1602.3015408806891,-6706.571328238559,3590.2139367793507,6,A
1781599330698,83.90301031567735,-10674.728698305611,5559.118579123339,6,A
1781599330720,-1654.843591967212,-17241.4668562607,7274.360660183747,6,A
1781599330741,-2484.1536073417697,-20309.96101691984,8824.520756916745,6,A
1781599330762,-1454.5271631327778,-22201.663568844517,8003.137225141338,6,A
1781599330785,-392.8500903102762,-23029.032413210723,6763.00914775494,6,A
1781599330806,-372.81844742683273,-23386.487884805832,7028.750878623454,6,A
1781599330828,-172.50201859239849,-24097.382474382623,6758.982757893296,6,A
1781599330849,1181.637040328377,-23527.06026127582,5482.617171752101,6,A
1781599330871,1289.8079118989715,-22784.034842791603,4331.069671321874,6,A
1781599330892,993.3395972240089,-21944.61693758511,4492.12526578764,6,A
1781599330914,676.8396396656027,-20816.02157221179,4331.069671321874,6,A
1781599330936,664.8206539355367,-19301.856259949363,3702.952852905387,6,A
1781599330957,760.9725397760651,-17562.775145334956,3264.0763579861746,6,A
1781599330979,696.8712825490462,-16273.525635424508,2966.1235082245075,6,A
1781599331001,332.2953820703758,-15329.682536268883,3300.313866740972,6,A
1781599331022,248.16248195991344,-13494.2089349322,2970.149898086152,6,A
1781599331044,576.6814252483856,-11718.98063779694,2482.9567248272097,6,A
1781599331065,889.1750542301031,-10767.10483141446,2426.5872667641916,6,A
1781599331087,364.3460106838853,-9461.789907050297,2615.827590261467,6,A
1781599331109,-300.70453304643644,-8048.033435123574,2732.592896249147,6,A
1781599331129,83.90301031567735,-7666.479841847896,2164.871925757322,6,A
1781599331151,889.1750542301031,-6517.802708407433,2466.851165380633,6,A
1781599331173,712.8965968558009,-7039.928678153098,2688.3026077710615,6,A
1781599331195,-1827.1157207648255,-9771.049135284267,5289.350458393182,6,A
1781599331216,-1258.217062875032,-9176.628800496896,3771.4014805533375,6,A
1781599331238,652.8016682054706,-12341.51544787831,1464.28008983124,6,A
1781599331260,-36.2868469849832,-19498.657587007343,2333.9802999463764,6,A
1781599331281,-2828.6978649369967,-25101.47087773967,5603.408867601425,6,A
1781599331303,-1951.3119066421748,-23992.95728043349,4286.779382843789,6,A
1781599331324,572.6750966716969,-24005.006341273773,1798.4704483477044,6,A
1781599331345,732.9282397392443,-24972.947562109966,1959.5260428134704,6,A
1781599331367,-709.3500478686823,-24089.349767155763,2776.8831847272327,6,A
1781599331389,-973.7677339301355,-24117.46424244976,3288.2346971560396,6,A
1781599331410,-440.9260332305404,-22615.34799102762,2805.0679137587417,6,A
1781599331432,616.7447110152725,-19583.001012889334,1701.837091668245,6,A
1781599331453,953.276311457122,-18008.590396425483,1625.335684297006,6,A
1781599331475,1418.0104263530095,-15936.15193189654,1899.1301948888083,6,A
1781599331497,1534.1939550769814,-14377.806729886403,2176.9510953422546,6,A
1781599331518,2083.060970083331,-13594.617775267905,1734.048210561398,6,A
1781599331540,2087.06729866002,-13618.715896948474,2285.6636216066463,6,A
1781599331562,2018.9597128563123,-13028.31191577453,2652.065099016264,6,A
1781599331583,2291.3900560711427,-10747.023063347318,2374.244198562818,6,A
1781599331605,2335.4596704147184,-9666.623941335134,2442.692826210768,6,A
1781599331627,2371.5166276049167,-8698.68272049894,2160.845535895678,6,A
1781599331648,1862.7128983654536,-9164.57973965661,2374.244198562818,6,A
1781599331670,1273.782597592217,-10064.242949064526,3098.9943736587647,6,A
1781599331691,1442.0483978131417,-9337.282945034023,2994.3082372560166,6,A
1781599331712,1257.757283285462,-7385.335088907922,2366.1914188395294,6,A
1781599331735,-288.6855473163704,-11706.931576956655,4153.908517409532,6,A
1781599331756,696.8712825490462,-13936.007832409301,3682.8209035971663,6,A
1781599331779,905.2003685368578,-14602.72253223838,3437.211122036873,6,A
1781599331801,-464.9640046906725,-18474.487415583153,3811.665379169779,6,A
1781599331823,-1117.9955626909282,-23510.994846822105,5394.03659479593,6,A
1781599331844,-224.5842900893514,-25209.91242530223,4902.817031675343,6,A
1781599331866,188.06755330958316,-25149.667121100807,4476.019706341063,6,A
1781599331887,1349.9028405493018,-27009.23884411806,3662.6889542889453,6,A
1781599331909,825.0737970030841,-26503.178288826108,3646.5833948423688,6,A
1781599331931,292.23209630348896,-24631.557504968572,4186.119636302685,6,A
1781599331952,-364.8057902734554,-23715.828881106943,4902.817031675343,6,A
1781599331974,-136.44506140220034,-20338.075492213837,3996.87931280541,6,A
1781599331996,-561.115890531201,-18526.70001255772,4262.621043673924,6,A
1781599332017,-1134.020876997683,-17072.780004496715,4677.339199423271,6,A
1781599332039,123.96629608256421,-14606.73888585181,3183.548560753292,6,A
1781599332060,176.0485675795171,-13120.688048883378,3304.340256602616,6,A
1781599332082,-172.50201859239849,-11839.471246199786,3807.6389893081346,6,A
1781599332103,-645.2487906416634,-9598.345929906855,4194.172416025973,6,A
1781599332125,-637.236133488286,-7883.362936973018,3779.454260276626,6,A
1781599332147,1762.5546839482365,-7027.879617312813,1766.2593294545513,6,A
1781599332168,600.7193967085177,-7815.084925544739,3030.545746010814,6,A
1781599332190,-681.3057478318615,-9734.901952763414,4343.148840906807,6,A
1781599332211,372.35866783726266,-9397.528249235445,3074.8360344888997,6,A
1781599332233,472.5168822544798,-10658.663283851898,3674.768123873878,6,A
1781599332254,-396.8564188869649,-11413.737763176397,5019.582337663023,6,A
1781599332276,-2476.1409501883923,-12546.349482163147,7000.566149591945,6,A
1781599332298,-1009.8246911203337,-14176.989049214993,5881.229768054872,6,A
1781599332319,1582.2698979972456,-14992.308832740915,4439.782197586266,6,A
1781599332341,845.1054398865275,-16574.75215643162,5704.0686141425285,6,A
1781599332363,-1562.6980347033723,-20201.519469357278,8458.119279507127,6,A
1781599332384,-2604.3434646424303,-23354.357055898407,9666.036238000372,6,A
1781599332406,-1690.90054915741,-25181.797950008233,8909.074944011272,6,A
1781599332427,-420.894390347097,-24928.767672362257,7552.181560637193,6,A
1781599332449,-537.0779190710689,-23683.698052199517,6738.850808585075,6,A
1781599332471,-773.4513050957013,-21719.701135233132,5985.915904457619,6,A
1781599332492,320.27639634030976,-20237.66665187813,3654.6361745656573,6,A
1781599332514,1810.6306268685007,-17767.609179619794,1903.1565847504523,6,A
1781599332536,2022.966041433001,-14996.325186354343,1488.438429001105,6,A
1781599332557,1325.8648690891698,-13253.227718126509,2140.713586587457,6,A
1781599332579,372.35866783726266,-11955.945500989203,3183.548560753292,6,A
1781599332600,-1158.058848457815,-11068.331352421574,4729.682267624645,6,A
1781599332621,-621.2108191815312,-9469.822614277153,4753.84060679451,6,A
1781599332643,540.6244680581875,-9184.661507723751,4073.3807201766485,6,A
1781599332665,-268.65390443292694,-8835.2387433555,4572.653063020523,6,A
1781599332686,-1350.362620138872,-10036.128473770528,5257.139339500029,6,A
1781599332709,-2808.666222053553,-12221.024839475464,6964.328640837148,6,A
1781599332730,-276.6665615863043,-12337.499094264882,3928.4306851574593,6,A
1781599332753,785.0105112361972,-12156.763181660614,2611.8012003998224,6,A
1781599332773,1910.7888412857178,-9622.444051587425,1174.3800197928615,6,A
1781599332795,2940.4152854947097,-12100.534231072617,1460.253699969596,6,A
1781599332816,516.5864965980553,-13670.92849392304,3791.533429861558,6,A
1781599332838,-1875.1916636850897,-14036.416672745007,5398.062984657574,6,A
1781599332860,-1390.4259059057588,-18237.522552390892,6634.164672182327,6,A
1781599332881,-633.2298049115973,-20699.547317422373,5623.540816909646,6,A
1781599332903,296.23842488017766,-20109.143336248428,3819.718158893067,6,A
1781599332925,119.95996750587553,-23025.016059597296,4375.35995979996,6,A
1781599332946,949.2699828804333,-25021.143805471103,4371.333569938316,6,A
1781599332968,3865.877186709796,-24258.03661891975,977.0869165722982,6,A
1781599332989,3633.5101292618524,-23153.539375226996,1113.9841718681992,6,A
1781599333011,2712.054556623455,-21314.049420276886,1786.3912787627721,6,A
1781599333032,961.2889686104994,-21036.92102095034,3727.111192075252,6,A
1781599333054,1245.738297555396,-19225.545541294225,2958.0707285012195,6,A
1781599333076,1570.2509122671795,-17454.333597772395,2889.622100853269,6,A
1781599333098,933.2446685736786,-15948.200992736825,2382.296978286106,6,A
1781599333119,1658.3901409543307,-14574.608056944384,1093.8522225599784,6,A
1781599333141,2768.1431566970964,-12333.482740651452,-407.9911958332891,6,A
1781599333162,2119.1179272735294,-10996.036987379866,747.5826944585816,6,A
1781599333184,2423.5988991018694,-10485.960078474485,187.9145036900449,6,A
1781599333205,2171.2001987704825,-9706.787477469417,960.9813571257215,6,A
1781599333227,1490.124340733406,-10795.219306708455,2841.3054225135393,6,A
1781599333248,364.3460106838853,-11397.672348722685,4451.861367171198,6,A
1781599333271,-136.44506140220034,-13016.262854934246,4947.107320153429,6,A
1781599333291,480.52953940785716,-14044.449379971862,4874.632302643834,6,A
1781599333314,1001.3522543773862,-16020.495357778533,4355.228010491739,6,A
1781599333335,1365.9281548560566,-16438.196133575064,3944.536244604036,6,A
1781599333357,881.1623970767257,-19125.136700958523,4624.996131221897,6,A
1781599333379,-1979.3562066789955,-23310.177166150697,5538.986629815119,6,A
1781599333400,288.2257677268003,-27125.713098907476,787.8465930750231,6,A
1781599333423,4570.991016207005,-29913.06250662664,-2739.2709257252513,6,A
1781599333443,5260.079531397459,-26350.556851515837,-2707.0598068320983,6,A
1781599333465,1938.8331413225385,-24928.767672362257,-1410.5622713826822,6,A
1781599333487,2423.5988991018694,-24278.11838698689,-2690.9542473855217,6,A
1781599333508,3445.2126861574843,-20149.30687238271,-2280.2624814978185,6,A
1781599333529,1726.4977267580382,-14924.030821312635,-182.5133635812168,6,A
1781599333552,-765.4386479423239,-12221.024839475464,2724.5401165258586,6,A
1781599333573,-344.77414739001193,-9337.282945034023,3115.0999331053413,6,A
1781599333595,196.08021046296054,-7586.152769579332,3646.5833948423688,6,A
1781599333616,604.7257252852064,-5666.335742360657,3296.287476879328,6,A
1781599333637,492.54852513792326,-4995.604688918149,3066.783254765611,6,A
1781599333660,552.6434537882535,-3389.063243546873,2551.4053524751603,6,A
1781599333681,2315.428027531275,-3312.7525248917373,1101.9050022832666,6,A
1781599333703,2483.6938277522,-5586.008670092093,1391.8050723216454,6,A
1781599333724,2002.9343985495575,-6365.181271097162,900.5855092010593,6,A
1781599333746,-713.356376445371,-8228.769347727843,3908.2987358492387,6,A
1781599333768,-1009.8246911203337,-11064.314998808144,4145.855737686244,6,A
1781599333789,-1750.9954778077404,-17450.317244158967,5406.115764380862,6,A
1781599333811,-1718.944849194231,-19659.311731544472,3960.6418040506123,6,A
1781599333833,-1021.8436768503998,-24053.20258463491,3292.2610870176836,6,A
1781599333854,2764.1368281204077,-31290.67179603251,-186.53975344286093,6,A
1781599333876,4558.972030476939,-33005.65478896635,-742.1815543497535,6,A
1781599333897,2643.946970819747,-33005.65478896635,759.661864043514,6,A
1781599333919,2347.4786561447845,-31053.706932840247,-371.7536870784918,6,A
1781599333941,2631.927985089681,-27479.152216889157,-524.7565018209694,6,A
1781599333963,885.1687256534144,-22000.845888173106,868.3743903079061,6,A
1781599333984,-2103.552392556345,-19880.211180283022,3537.870868577977,6,A
1781599334006,-1254.2107342983434,-17100.894479790713,2289.690011468291,6,A
1781599334027,-424.90071892378563,-15430.091376604589,1834.7079571025017,6,A
1781599334050,-304.7108616231251,-15028.456015261769,1359.5939534284923,6,A
1781599334071,156.0169246960737,-13610.683189721618,-13.404989392162527,6,A
1781599334092,600.7193967085177,-11377.590580655544,-444.2287045880865,6,A
1781599334114,977.3142829172541,-8461.717857306678,-645.5481976702939,6,A
1781599334135,556.6497823649422,-8188.60581159356,264.41591106128374,6,A
1781599334157,31.82073881872445,-6461.5737578194385,554.3159810996625,6,A
1781599334180,-617.2044906048426,-5059.866346733,1613.2565147120736,6,A
1781599334201,-172.50201859239849,-4365.0371716099235,2708.434557079282,6,A
1781599334222,-2251.7865498938263,-7232.713651597651,6320.106262974084,6,A
1781599334244,-3085.1028938450727,-8035.984374283289,6996.539759730301,6,A
1781599334265,-1466.546148862844,-9473.838967890582,4246.515484227347,6,A
1781599334288,408.41562502746086,-12538.316774936291,1955.4996529518262,6,A
1781599334309,-3133.1788367653367,-19699.475267678754,6376.475721037102,6,A
1781599334330,-1686.8942205807214,-24213.85672917204,3280.181917432751,6,A
1781599334353,3445.2126861574843,-30041.585822256344,-605.2842990538525,6,A
1781599334374,4330.611301605683,-33005.65478896635,1895.103805027164,6,A
1781599334396,2575.8393850160396,-31330.835332166793,2752.7248455573676,6,A
1781599334417,861.1307541932823,-25852.52900345074,4061.301550591716,6,A
1781599334440,-929.69811958656,-22161.500032710235,4170.014076856108,6,A
1781599334461,-717.3627050220597,-19072.924103983954,2672.197048324485,6,A
1781599334483,-645.2487906416634,-16321.721878785645,2772.8567948655887,6,A
1781599334505,-1650.8372633905233,-15506.402095259724,4137.802957962955,6,A
1781599334527,-2800.6535649001758,-15333.698889882311,5599.382477739781,6,A
1781599334547,-1418.4702059425795,-15891.97204214883,4089.486279623225,6,A
1781599334569,1906.782512709029,-14859.769163497785,1858.8662962723668,6,A
1781599334591,1682.4281124144627,-12466.022409894584,1931.3413137819614,6,A
1781599334612,756.9662111993764,-9465.806260663725,1911.2093644737406,6,A
1781599334634,428.44726791090426,-7100.173982354521,2056.15939949293,6,A
1781599334656,604.7257252852064,-6477.639172273151,2418.5344870409035,6,A
1781599334678,2323.4406846846523,-4871.097726901875,993.1924760188747,6,A
1781599334699,2151.168555887039,-5079.948114800141,1705.863481529889,6,A
1781599334721,-1109.9829055375508,-7035.9123245396695,5261.165729361673,6,A
1781599334742,-2892.799122164016,-10240.962508055365,7689.078815933094,6,A
1781599334764,-637.236133488286,-12409.79345930659,4427.703028001334,6,A
1781599334786,4162.345501384759,-19004.646092555675,-226.8036520593024,6,A
1781599334807,4442.788501752967,-27145.79486697462,2450.7456059340566,6,A
1781599334829,-1270.2360486050982,-28523.404156380486,5112.189304480839,6,A
1781599334850,1109.5231259479808,-29310.60946461241,2293.716401329935,6,A
1781599334871,5067.775759716402,-29013.399297218726,-118.0911257949104,6,A
1781599334894,4815.377059385015,-27724.149787308277,312.7325894010135,6,A
1781599334915,1702.4597552979062,-23033.04876682415,2011.8691110148443,6,A
1781599334937,-1061.9069626172866,-18900.22089860654,4467.966926617775,6,A
1781599334958,-709.3500478686823,-16221.313038449942,4161.96129713282,6,A
1781599334980,11.789095935281024,-17325.81028214269,4665.260029838339,6,A
1781599335003,-20.26153267822846,-16530.57226668391,2648.03870915462,6,A
1781599335023,152.010596119385,-16715.324532901606,2543.3525727518722,6,A
1781599335046,772.9915255061312,-15325.666182655455,1669.6259727750917,6,A
1781599335066,-617.2044906048426,-14100.678330559856,3425.131952451941,6,A
1781599335088,-1811.0904064580707,-12317.417326197741,4194.172416025973,6,A
1781599335110,-1190.1094770713246,-10550.221736289337,3155.363831721783,6,A
1781599335131,-805.5019337092108,-10622.516101331044,2708.434557079282,6,A
1781599335155,208.0991961930266,-9309.168469740025,1383.7522925983571,6,A
1781599335174,704.8839397024235,-7730.741499662747,904.6118990627034,6,A
1781599335196,977.3142829172541,-5839.0389477380695,-448.2550944497306,6,A
1781599335217,905.2003685368578,-8148.442275459279,-319.4106188771178,6,A
1781599335240,1546.2129408070475,-10610.46704049076,260.3895211996396,6,A
1781599335261,1526.181297923604,-9955.801401501963,107.38670645716194,6,A
1781599335283,-2852.735836397129,-13229.12959644594,3356.68332480399,6,A
1781599335304,-4194.855909587838,-18691.37051070828,2245.399722990205,6,A
1781599335326,748.9535540459991,-28583.64946058191,-629.4426382237173,6,A
1781599335347,2255.333098880945,-33005.65478896635,562.3687608229508,6,A
1781599335369,3.7764387819036527,-30631.989803430286,2406.455317455971,6,A
1781599335391,-1162.0651770345037,-27776.362384282846,2676.223438186129,6,A
1781599335412,-212.56530435928534,-23474.84766430125,2454.7719957957006,6,A
1781599335434,-1138.0272055743717,-19655.29537793104,3082.888814212188,6,A
1781599335456,-1646.8309348138346,-16414.098011894494,2422.5608769025475,6,A
1781599335478,-933.7044481632487,-15377.878779630022,1444.1481405230195,6,A
1781599335499,1093.497811641226,-14731.245847868084,191.94089355168907,6,A
1781599335520,1606.3078694573778,-13004.213794093961,-254.98838109081146,6,A
1781599335542,668.8269825122254,-12409.79345930659,276.4950806462162,6,A
1781599335563,1353.9091691259905,-10943.8243904053,-1205.2163884388306,6,A
1781599335585,2704.0418994700776,-9646.542173267993,-2489.634754303314,6,A
1781599335607,2824.231756770738,-8626.388355457233,-2401.0541773471427,6,A
1781599335628,1970.883769936048,-7104.190335967949,-1438.7470004141912,6,A
1781599335649,348.32069637713056,-6541.900830088002,312.7325894010135,6,A
1781599335672,-1843.1410350715803,-7317.057077479643,1919.2621441970289,6,A
1781599335694,-1322.318320102051,-7521.891111764481,1846.7871266874342,6,A
1781599335715,-1931.2802637587313,-11220.952789731844,3839.850108201288,6,A
1781599335736,-5096.279839342793,-14068.54750165243,5720.1741735891055,6,A
1781599335758,-6482.469526877077,-20631.269305994094,4725.655877763001,6,A
1781599335780,-2396.0143786546187,-30093.79841923091,2813.12069348203,6,A
1781599335801,2900.351999727823,-33005.65478896635,445.60345483527044,6,A
1781599335823,1345.896511972613,-30527.564609481153,1585.0717856805645,6,A
1781599335845,-921.6854624331826,-23294.111751696983,2249.426112851849,6,A
1781599335867,-1730.963834924297,-18438.3402330623,3260.0499681245306,6,A
1781599335888,-1799.0714207280046,-15526.483863326865,3509.686139546468,6,A
1781599335914,-1734.9701635009858,-14116.74374501357,3078.8624243505437,6,A
1781599335931,-1787.0524349979387,-14253.299767870129,2841.3054225135393,6,A
1781599335953,-1698.9132063107875,-15273.453585680889,2547.3789626135163,6,A
1781599335974,-609.1918334514652,-16052.626186685957,1266.986986610677,6,A
1781599335996,-44.29950413836057,-16080.740661979955,626.7909986092571,6,A
1781599336017,-120.41974709544559,-14181.005402828421,-89.90639676340136,6,A
1781599336039,236.1434962298474,-11919.798318468349,-1128.7149810675917,6,A
1781599336061,825.0737970030841,-10799.235660321885,-1704.488731282705,6,A
1781599336082,869.1434113466596,-10140.553667719661,-2115.180497170408,6,A
1781599336104,23.80808166534708,-9293.103055286312,-1479.0108990306328,6,A
1781599336126,-605.1855048747765,-10983.987926539581,-585.1523497456317,6,A
1781599336147,-2139.609349746543,-16064.675247526242,1794.4440584860604,6,A
1781599336169,-1931.2802637587313,-19607.099134569904,1762.232939592907,6,A
1781599336190,-1370.3942630223153,-24519.09960379258,2257.4788925751373,6,A
1781599336213,-80.35646132855874,-26900.797296555498,1903.1565847504523,6,A
1781599336234,1249.7446261320847,-25659.744030006186,1097.8786124216226,6,A
1781599336256,-32.28051840829451,-23105.34313186586,1572.9926160956322,6,A
1781599336277,-1234.1790914149,-20398.320796415257,2032.001060323065,6,A
1781599336299,-168.4956900157098,-18048.753932559768,622.764608747613,6,A
1781599336320,-601.1791762980878,-19257.67637020165,1029.429984773672,6,A
1781599336341,488.54219656123456,-19795.867754401028,-452.28148431137475,6,A
1781599336363,2251.326770304256,-18546.78178062486,-1942.04573311971,6,A
1781599336385,1962.8711127826707,-17289.663099621837,-1100.5302520360826,6,A
1781599336407,833.0864541564615,-14928.047174926065,-500.59816265110453,6,A
1781599336428,532.6118109048101,-12305.368265357456,-520.7301119593253,6,A
1781599336450,572.6750966716969,-11638.653565528377,590.5534898544598,6,A
1781599336471,885.1687256534144,-10072.275656291382,268.44230092292787,6,A
1781599336493,1113.5294545246695,-7891.395644199874,91.28114701058534,6,A
1781599336515,1478.1053550033398,-7043.945031766526,574.4479304078832,6,A
1781599336536,1093.497811641226,-5818.957179670928,904.6118990627034,6,A
1781599336558,-336.7614902366346,-8156.474982686135,1657.5468031901594,6,A
1781599336580,-2107.5587211330335,-15458.205851898585,3058.730475042323,6,A
1781599336601,-1338.3436344088059,-22543.05362598591,2873.5165414066923,6,A
1781599336622,1994.92174139618,-26936.944479076352,316.7589792626577,6,A
1781599336644,2780.1621424271625,-29025.44835805901,477.8145737284236,6,A
1781599336666,1353.9091691259905,-27671.937190333712,1057.614713805181,6,A
1781599336688,1257.757283285462,-22980.836169849583,940.8494078175007,6,A
1781599336709,1321.858540512481,-20418.4025644824,1045.5355442202485,6,A
1781599336730,732.9282397392443,-17795.72365491379,1154.2480704846407,6,A
1781599336752,376.36499641395136,-15743.366958451987,1713.9162612531773,6,A
1781599336773,660.814325358848,-13433.963630730777,1858.8662962723668,6,A
1781599336795,1017.377568684141,-13421.914569890492,1669.6259727750917,6,A
1781599336817,1017.377568684141,-16197.214916769373,2007.8427211532003,6,A
1781599336839,2824.231756770738,-14976.243418287202,715.3715755654284,6,A
1781599336860,2896.3456711511344,-12618.643847204854,550.2895912380184,6,A
1781599336882,2042.9976843164443,-11341.44339813469,1999.789941429912,6,A
1781599336903,2291.3900560711427,-9273.021287219171,1975.631602260047,6,A
1781599336924,2920.3836426112666,-7815.084925544739,1790.4176686244161,6,A
1781599336947,2555.807742132596,-7373.286028067638,1951.4732630901822,6,A
1781599336968,1586.2762265739343,-6027.807567569194,1746.1273801463306,6,A
1781599336989,1249.7446261320847,-5104.04623648071,2172.9247054806106,6,A
1781599337011,596.713068131829,-7517.874758151052,2160.845535895678,6,A
1781599337033,-969.7614053534469,-10132.520960492804,2185.0038750655426,6,A
1781599337055,-4002.5521379067814,-18261.62067407146,1568.966226233988,6,A
1781599337076,-2944.8813936609686,-31029.60881115968,969.0341368490098,6,A
1781599337098,3701.61771506556,-33005.65478896635,-3637.1558648718965,6,A
1781599337120,5696.769346256525,-33005.65478896635,-4196.8240556404335,6,A
1781599337141,2880.3203568443796,-29141.92261284843,-2517.819483334823,6,A
1781599337162,103.93465319912079,-24017.055402114056,14.779739639346515,6,A
1781599337184,-961.7487482000695,-21667.488538258567,2148.7663663107455,6,A
1781599337206,-288.6855473163704,-19044.809628689956,2209.1622142354076,6,A
1781599337227,-144.45771855557769,-17763.592826006367,2072.2649589395064,6,A
1781599337250,-456.95134753729513,-18064.81934701348,2108.502467694304,6,A
1781599337271,1161.6053974449337,-17020.56740752215,401.3131663571848,6,A
1781599337292,2796.1874567339173,-15570.663753074574,-975.7121663251141,6,A
1781599337313,2800.193785310606,-13875.762528207879,-810.630181997704,6,A
1781599337335,1614.320526610755,-12931.919429052254,518.0784723448651,6,A
1781599337357,1686.4344409911514,-11457.917652924107,779.7938133517348,6,A
1781599337379,1490.124340733406,-10899.644500657589,1142.1689008997082,6,A
1781599337400,1057.440854451028,-10112.439192425663,1065.6674935284693,6,A
1781599337422,748.9535540459991,-10208.831679147941,1033.4563746353163,6,A
1781599337443,1710.4724124512836,-10441.780188726776,95.30753687222949,6,A
1781599337465,2006.9407271262462,-11216.936436118416,-1072.3455230045736,6,A
1781599337486,1049.4281972976505,-15582.712813914859,-170.43419399628434,6,A
1781599337508,676.8396396656027,-17024.58376113558,856.2952207229737,6,A
1781599337529,2006.9407271262462,-16932.20762802673,71.1491977023646,6,A
1781599337552,1862.7128983654536,-16807.700666010456,723.4243552887167,6,A
1781599337574,1381.9534691628114,-16124.920551727664,1464.28008983124,6,A
1781599337596,1482.1116835800285,-15229.273695933178,1609.2301248504295,6,A
1781599337617,1213.6876689418866,-15486.320327192583,2023.9482805997768,6,A
1781599337639,957.2826400338107,-16912.12585995959,2535.2997930285837,6,A
1781599337660,-80.35646132855874,-19382.183332217926,3835.8237183396436,6,A
1781599337682,1309.839554782415,-19052.842335916816,2639.9859294313314,6,A
1781599337704,2651.9596279731245,-19141.202115412234,1597.150955265497,6,A
1781599337725,2427.605227678558,-18024.655810879198,2027.974670461421,6,A
1781599337746,2247.3204417275674,-16333.77093962593,1689.7579220833125,6,A
1781599337769,2407.5735847951146,-15912.053810215972,1399.8578520449337,6,A
1781599337790,2704.0418994700776,-14522.395459969817,352.996488017455,6,A
1781599337811,2047.004012893133,-15181.07745257204,1166.327240069573,6,A
1781599337834,1430.0294120830756,-15052.554136942339,1383.7522925983571,6,A
1781599337856,853.1180970399049,-14257.316121483556,1391.8050723216454,6,A
1781599337877,548.6371252115648,-15289.519000134602,2080.317738662795,6,A
1781599337898,913.2130256902352,-16647.046521473327,1730.021820699754,6,A
1781599337920,1442.0483978131417,-17843.91989827493,731.4771350120051,6,A
1781599337941,2014.9533842796236,-20093.077921794717,1593.1245654038528,6,A
1781599337964,3236.8836001696727,-19627.180902637047,981.1133064339423,6,A
1781599337985,3136.7253857524556,-19117.103993731664,1041.5091543586045,6,A
1781599338007,2639.9406422430584,-19466.526758099917,1641.4412437435826,6,A
1781599338028,2976.472242684908,-19113.087640118236,1327.382834535339,6,A
1781599338050,3176.788671519342,-19402.265100285065,1198.5383589627263,6,A
1781599338071,2844.2633996541813,-18743.583107682844,1581.0453958189205,6,A
1781599338093,2267.352084611011,-18924.319020287112,1158.2744603462847,6,A
1781599338114,2379.529284758294,-19181.365651546515,703.292405980496,6,A
1781599338136,3545.3709005747014,-17574.82420617524,-202.64531288943752,6,A
1781599338157,2555.807742132596,-15747.383312065414,485.86735345171195,6,A
1781599338180,1510.1559836168492,-13851.664406527309,969.0341368490098,6,A
1781599338201,2026.9723700096897,-11534.228371579244,590.5534898544598,6,A
1781599338222,1930.8204841691613,-10811.284721162168,1182.4327995161498,6,A
1781599338244,1341.8901833959244,-9706.787477469417,1681.7051423600242,6,A
1781599338265,1285.8015833222828,-7915.493765880444,1601.1773451271413,6,A
1781599338287,1241.7319689787073,-6726.653096305699,1830.6815672408577,6,A
1781599338309,1041.415540144273,-9317.201176966882,312.7325894010135,6,A
1781599338331,47.84605312547919,-10341.37134839107,2865.463761683404,6,A
1781599338352,43.83972454879051,-11626.604504688092,2945.991558916287,6,A
1781599338374,-420.894390347097,-13658.879433082757,2470.877555242277,6,A
1781599338395,-2099.546063979656,-22482.80832178449,751.6090843202257,6,A
1781599338417,2143.1558987336616,-27539.39752109058,-2296.368040944395,6,A
1781599338438,5019.699816796137,-28017.343601088534,-2469.5028049950934,6,A
1781599338460,2836.250742500804,-25828.43088177017,-653.6009773935822,6,A
1781599338481,1017.377568684141,-23362.389763125262,397.28677649554066,6,A
1781599338504,1305.8332262057263,-20032.832617593293,1504.5439884476816,6,A
1781599338525,208.0991961930266,-18414.242111381733,3050.6776953190347,6,A
1781599338546,11.789095935281024,-17819.82177659436,4194.172416025973,6,A
1781599338568,-288.6855473163704,-18426.291172222016,3791.533429861558,6,A
1781599338590,2255.333098880945,-17566.791498948383,1854.8399064107225,6,A
1781599338612,3453.2253433108617,-15916.0701638294,1206.5911386860146,6,A
1781599338633,2247.3204417275674,-15337.715243495739,1637.4148538819386,6,A
1781599338654,1790.5989839850572,-14879.850931564926,928.7702382325683,6,A
1781599338676,2107.0989415434633,-13437.979984344205,276.4950806462162,6,A
1781599338697,2235.3014559975013,-12289.302850903743,405.33955621882893,6,A
1781599338719,2335.4596704147184,-10923.742622338159,-114.06473593326625,6,A
1781599338741,2659.972285126502,-9710.803831082845,-106.01195620997795,6,A
1781599338762,2355.491313298162,-8196.638518820417,727.4507451503608,6,A
1781599338783,2099.086284390086,-6815.01287580112,1758.206549731263,6,A
1781599338805,905.2003685368578,-7690.577963528465,3356.68332480399,6,A
1781599338827,-785.4702908257673,-13799.451809552742,4109.618228931446,6,A
1781599338848,404.40929645077216,-18510.634598104007,2309.8219607765113,6,A
1781599338870,3685.592400758805,-24350.4127520286,908.6382889243475,6,A
1781599338891,4286.541687262108,-28483.240620246204,554.3159810996625,6,A
1781599338913,4482.851787519854,-26651.78337252295,1279.0661561956092,6,A
1781599338935,2235.3014559975013,-23462.798603460968,3171.4693911683594,6,A
1781599338956,1093.497811641226,-20454.549747003253,5031.661507247956,6,A
1781599338978,624.7573681686498,-18125.064651214903,4926.975370845208,6,A
1781599339000,304.25108203355506,-18329.89868549974,4141.829347824599,6,A
1781599339021,2203.2508273839917,-17004.501993068436,2873.5165414066923,6,A
1781599339043,2363.5039704515393,-15614.843642822285,2945.991558916287,6,A
1781599339065,1570.2509122671795,-15080.668612236335,3276.155527571107,6,A
1781599339087,2123.124255850218,-15088.701319463193,2797.0151340354532,6,A
1781599339108,2732.086199506898,-13879.778881821307,2829.2262529286068,6,A
1781599339130,2167.193870193794,-13124.704402496807,3461.369461206738,6,A
1781599339152,1714.4787410279723,-13699.042969217038,3030.545746010814,6,A
1781599339173,3032.56084275855,-13084.540866362524,1677.67875249838,6,A
1781599339195,4034.142986930721,-11337.427044521262,1492.464818862749,6,A
1781599339216,3609.47215780172,-10666.695991078754,2358.1386391162414,6,A
1781599339237,3164.769685789276,-10787.1865994816,2519.194233582007,6,A
1781599339259,3541.3645719980127,-11670.784394435801,2402.428927594327,6,A
1781599339280,4330.611301605683,-13365.685619302498,1701.837091668245,6,A
1781599339303,5404.307360158251,-13393.800094596496,1073.7202732517576,6,A
1781599339325,4999.668173912694,-14550.509935263814,1995.7635515682678,6,A
1781599339346,4607.047973397202,-14598.706178624952,2346.059469531309,6,A
1781599339368,2888.333013997757,-17213.352380966702,4705.52392845478,6,A
1781599339389,1826.6559411752553,-18430.307525835444,5712.1213938658175,6,A
1781599339411,2163.187541617105,-19607.099134569904,5402.089374519218,6,A
1781599339433,2363.5039704515393,-20695.530963808946,5228.95461046852,6,A
1781599339454,2888.333013997757,-20474.631515070392,4556.547503573946,6,A
1781599339476,3525.339257691258,-18446.37294028916,3755.295921106761,6,A
1781599339497,3004.516542721729,-17245.483209874128,3992.852922943766,6,A
1781599339520,3357.0734574703333,-17349.90840382326,3634.5042252574362,6,A
1781599339541,4514.902416133363,-16149.018673408234,2430.613656625836,6,A
1781599339562,4138.307529924627,-15518.451156100009,2853.3845920984713,6,A
1781599339584,4130.294872771249,-14285.430596777554,2410.481707317615,6,A
1781599339606,4114.269558464494,-13984.20407577044,2233.3205534052727,6,A
1781599339628,4514.902416133363,-13980.187722157012,1717.9426511148215,6,A
1781599339650,4587.016330513759,-13108.638988043094,1448.1745303846635,6,A
1781599339671,3893.921486746617,-11526.195664352386,2241.3733331285607,6,A
1781599339693,2776.155813850474,-10405.633006205922,3690.8736833204543,6,A
1781599339714,1882.744541248897,-8995.892887892627,4423.676638139689,6,A
1781599339735,2006.9407271262462,-8807.124268061501,3904.2723459875942,6,A
1781599339758,2567.826727862662,-8803.107914448074,3920.3779054341708,6,A
1781599339779,1694.4470981445288,-7562.054647898763,3529.8180888546885,6,A
1781599339801,127.97262465925289,-11875.61842872064,4947.107320153429,6,A
1781599339822,889.1750542301031,-17470.399012226106,2414.5080971792595,6,A
1781599339844,4066.1936155442304,-21783.962793047984,240.25757189141885,6,A
1781599339866,3693.6050579121825,-22101.25472850881,1073.7202732517576,6,A
1781599339887,768.9851969294425,-20289.879248852696,2724.5401165258586,6,A
1781599339909,-2103.552392556345,-24434.75617791059,3139.258272275206,6,A
1781599339930,2375.5229561816054,-27390.79243739374,1883.0246354422316,6,A
1781599339952,3549.37722915139,-25744.08745588818,1468.3064796928843,6,A
1781599339973,668.8269825122254,-21490.768979267727,4004.932092528698,6,A
1781599339995,-412.8817331937196,-18293.751502978885,4093.5126694848695,6,A
1781599340017,-132.43873282551164,-16578.768510045047,4773.972556102731,6,A
1781599340039,332.2953820703758,-15442.140437444872,4174.040466717753,6,A
1781599340060,1197.6623546351318,-14016.334904677866,2797.0151340354532,6,A
1781599340083,1253.7509547087734,-13120.688048883378,2861.43737182176,6,A
1781599340104,1125.5484402547354,-13502.241642159057,3260.0499681245306,6,A
1781599340124,1978.8964270894255,-12947.984843505967,2080.317738662795,6,A
1781599340146,2704.0418994700776,-11895.70019678778,1351.5411737052038,6,A
1781599340169,2135.143241580284,-10734.974002507033,1995.7635515682678,6,A
1781599340190,1618.3268551874437,-10156.619082173374,2776.8831847272327,6,A
1781599340211,1734.5103839114156,-9702.771123855988,2156.8191460340336,6,A
1781599340234,1502.1433264634718,-11727.013345023797,2917.806829884778,6,A
1781599340255,1185.6433689050657,-12116.59964552633,4085.459889761581,6,A
1781599340277,608.7320538618951,-11731.029698637225,4423.676638139689,6,A
1781599340298,-2748.571293403223,-12574.463957457145,6348.290992005593,6,A
1781599340320,-3265.3876797960634,-18374.07857524745,8466.172059230415,6,A
1781599340341,1506.1496550401605,-24756.064466984844,4637.07530080683,6,A
1781599340363,4735.250487851241,-26290.311547314413,2116.5552474175925,6,A
1781599340385,2984.4848998382854,-26246.131657566704,4186.119636302685,6,A
1781599340406,556.6497823649422,-24326.314630348028,6634.164672182327,6,A
1781599340427,1337.8838548192357,-23081.24501018529,6839.510555126179,6,A
1781599340449,1782.5863268316798,-21185.526104647182,5816.807530268565,6,A
1781599340471,628.7636967453385,-18398.176696928018,6078.522871275435,6,A
1781599340492,484.53586798454586,-19060.87504314367,5462.48522244388,6,A
1781599340514,2095.079955813397,-17418.18641525154,3888.1667865410177,6,A
1781599340536,2399.560927641737,-14915.99811408578,2752.7248455573676,6,A
1781599340558,2199.244498807303,-12024.223512417482,2209.1622142354076,6,A
1781599340579,1918.8014984390952,-10060.226595451097,1963.5524326751147,6,A
1781599340600,2155.1748844637277,-8726.797195792939,1971.605212398403,6,A
1781599340621,2279.371070341077,-7365.253320840781,1987.7107718449795,6,A
1781599340644,2551.8014135559074,-5843.055301351497,1319.3300548120508,6,A
1781599340664,1890.7571984022743,-4939.3757383301545,1266.986986610677,6,A
1781599340687,107.94098177580946,-5043.800932279288,3151.3374418601384,6,A
1781599340709,-933.7044481632487,-5525.76336589067,3453.31668148345,6,A
1781599340730,-1278.2487057584756,-10863.497318136735,4274.700213258856,6,A
1781599340751,-2536.235878838723,-18707.43592516199,6577.795214119309,6,A
1781599340773,-2259.7992070472033,-26800.388456219793,9384.188947685281,6,A
1781599340795,3284.9595430899367,-31463.375001409924,4306.911332152009,6,A
1781599340817,4751.275802157996,-32587.954013169816,4347.175230768451,6,A
1781599340837,1590.282555150623,-29796.588251837224,9070.130538477038,6,A
1781599340860,2295.3963846478314,-26294.32790092784,8872.837435256475,6,A
1781599340881,2191.2318416539256,-20575.040355406098,7813.896901644063,6,A
1781599340902,372.35866783726266,-16827.782434077595,8546.6998564633,6,A
1781599340924,-188.52733289915324,-14787.474798456078,8780.23046843866,6,A
1781599340946,2463.6621848687564,-14952.145296606634,5261.165729361673,6,A
1781599340968,2543.78875640253,-14787.474798456078,4794.104505410951,6,A
1781599340988,2279.371070341077,-13554.454239133624,4379.386349661604,6,A
1781599341010,2479.687499175511,-12317.417326197741,3868.034837232797,6,A
1781599341033,2563.8203992859735,-11771.193234771506,4089.486279623225,6,A
1781599341054,2095.079955813397,-10385.551238138782,3247.970798539598,6,A
1781599341075,1502.1433264634718,-9473.838967890582,3171.4693911683594,6,A
1781599341097,1742.523041064793,-8080.164264030999,2249.426112851849,6,A
1781599341119,1914.7951698624065,-6043.872982022906,1355.567563566848,6,A
1781599341140,1113.5294545246695,-4646.181924549896,1705.863481529889,6,A
1781599341161,452.4852393710364,-4288.726452954787,2829.2262529286068,6,A
1781599341183,340.3080392237532,-4168.235844551942,3566.055597609486,6,A
1781599341205,-2115.571378286411,-6859.19276554883,8409.802601167397,6,A
1781599341226,-2708.508007636336,-11136.609363849853,9746.564035233256,6,A
1781599341249,-1959.324563795552,-20591.105769859812,10741.08233105936,6,A
1781599341270,1890.7571984022743,-33005.65478896635,9496.927863811317,6,A
1781599341291,6097.402203925394,-33005.65478896635,7842.081630675572,6,A
1781599341313,5624.655431876129,-33005.65478896635,5140.374033512348,6,A
1781599341335,3501.3012862311257,-28374.799072683643,6384.52850076039,6,A
1781599341356,1165.6117260216224,-22591.24986934705,6787.167486924805,6,A
1781599341377,-541.0842476477575,-18434.32387944887,7479.706543127599,6,A
1781599341399,-1330.3309772554285,-16992.452932228152,7532.049611328973,6,A
1781599341421,-236.60327581941746,-16815.73337323731,5853.045039023363,6,A
1781599341442,985.3269400706315,-15582.712813914859,3586.1875469177066,6,A
1781599341464,1357.9154977026792,-13104.622634429667,3107.047153382053,6,A
1781599341485,873.1497399233483,-10883.579086203876,2631.9331497080434,6,A
1781599341507,764.9788683527538,-8188.60581159356,2881.5693211299804,6,A
1781599341529,676.8396396656027,-5839.0389477380695,3103.0207635204088,6,A
1781599341550,957.2826400338107,-5212.487784043271,4069.3543303150045,6,A
1781599341571,1193.656026058443,-4083.8924186699496,4182.093246441041,6,A
1781599341593,724.915582585867,-3136.0329659008967,4250.541874088991,6,A
1781599341615,228.13083907647,-5397.240050260968,6384.52850076039,6,A
1781599341637,-220.5779615126627,-10164.65178940023,6605.979943150818,6,A
1781599341658,1185.6433689050657,-15912.053810215972,3405.00000314372,6,A
1781599341680,4302.567001568863,-23888.532086484356,1250.8814271641002,6,A
1781599341701,5083.801074023157,-25362.5338626125,2164.871925757322,6,A
1781599341723,2371.5166276049167,-23498.94578598182,5853.045039023363,6,A
1781599341744,460.49789652441376,-22848.296500606455,8872.837435256475,6,A
1781599341767,1013.3712401074523,-21000.773838429486,9295.60837072911,6,A
1781599341788,1261.7636118621508,-20089.06156818129,9509.00703339625,6,A
1781599341809,1297.820569052349,-18711.452278775418,8836.599926501678,6,A
1781599341831,1085.4851544878486,-17225.40144180699,8401.74982144411,6,A
1781599341852,1962.8711127826707,-15980.33182164425,6372.449331175458,6,A
1781599341873,2864.295042537625,-13819.533577619884,4331.069671321874,6,A
1781599341895,2844.2633996541813,-12208.975778635178,4073.3807201766485,6,A
1781599341918,2491.7064849055773,-10843.415550069594,4041.1696012834955,6,A
1781599341939,2447.6368705620016,-9397.528249235445,3904.2723459875942,6,A
1781599341960,1333.8775262425472,-7357.220613613925,3739.1903616601844,6,A
1781599341982,772.9915255061312,-6666.407792104276,3380.841663973855,6,A
1781599342003,1205.6750117885092,-7594.1854768061885,2821.1734732053183,6,A
1781599342025,2611.8963422062375,-6292.886906055454,461.70901428184703,6,A
1781599342047,2744.105185236964,-6702.55497462513,481.8409635900678,6,A
1781599342069,-436.91970465385174,-11417.754116789825,2285.6636216066463,6,A
1781599342091,-3726.1154661152623,-19181.365651546515,4886.711472228767,6,A
1781599342112,324.28272491699846,-27595.626471678574,1323.356444673695,6,A
1781599342133,6910.686904993197,-33005.65478896635,-637.4954179470056,6,A
1781599342155,7804.098177594774,-33005.65478896635,707.3187958421402,6,A
1781599342177,3585.434186341588,-28053.490783609388,4286.779382843789,6,A
1781599342198,789.0168398128859,-23992.95728043349,7741.421884134468,6,A
1781599342219,1337.8838548192357,-20277.830188012413,7447.495424234446,6,A
1781599342242,1025.3902258375183,-20177.421347676707,7266.307880460458,6,A
1781599342263,893.1813828067917,-22177.565447163946,5961.757565287755,6,A
1781599342285,2523.7571135190865,-21808.060914728554,3247.970798539598,6,A
1781599342306,3108.6810857156347,-20739.710853556655,2736.619286110791,6,A
1781599342327,2187.225513077237,-19450.461343646206,3135.231882413562,6,A
1781599342349,-0.22988979478503244,-14044.449379971862,3449.2902916218054,6,A
1781599342371,-729.3816907521257,-12004.141744350341,4399.518298969825,6,A
1781599342393,-1438.501848826023,-8923.59852285092,4101.565449208158,6,A
1781599342414,-781.4639622490787,-4441.347890265059,3743.2167515218284,6,A
1781599342436,1205.6750117885092,-3276.6053423708836,1669.6259727750917,6,A
1781599342457,2607.890013629549,-1115.807098346517,2156.8191460340336,6,A
1781599342479,3180.795000096031,2141.4556821437454,3014.4401865642376,6,A
1781599342500,1942.8394698992272,1583.1825298772271,4629.0225210835415,6,A
1781599342522,1345.896511972613,494.75070063818737,4520.309994819149,6,A
1781599342543,1357.9154977026792,-4794.78700824674,3598.266716502639,6,A
1781599342565,-408.87540461703094,-10377.518530911924,2040.0538400463533,6,A
1781599342587,-1378.4069201756927,-26892.764589328643,960.9813571257215,6,A
1781599342608,-541.0842476477575,-33005.65478896635,3457.343071345094,6,A
1781599342630,2908.3646568812005,-33005.65478896635,3562.0292077478416,6,A
1781599342652,3100.6684285622573,-30611.908035363147,6541.557705364512,6,A
1781599342673,1049.4281972976505,-28427.01166965821,7825.976071228995,6,A
1781599342694,328.28905349368716,-24972.947562109966,7600.498238976923,6,A
1781599342717,692.8649539723575,-21542.98157624229,8329.274803934515,6,A
1781599342738,320.27639634030976,-18402.193050541446,7632.709357870076,6,A
1781599342759,652.8016682054706,-16534.588620297338,6002.021463904196,6,A
1781599342781,1782.5863268316798,-14783.458444842649,3819.718158893067,6,A
1781599342803,2231.2951274208126,-11855.536660653499,1979.6579921216912,6,A
1781599342824,2828.2380853474265,-10136.537314106234,1210.6175285476588,6,A
1781599342846,3048.586157065304,-8212.70393327413,892.532729477771,6,A
1781599342867,2167.193870193794,-7686.561609915037,1927.3149239203171,6,A
1781599342889,1622.3331837641324,-6618.211548743138,1923.2885340586731,6,A
1781599342910,1622.3331837641324,-4670.280046230466,2740.645675972435,6,A
1781599342933,1954.8584556292933,-4975.522920851008,3493.580580099891,6,A
1781599342954,2539.7824278258413,-6084.036518157189,2962.0971183628635,6,A
1781599342975,2038.9913557397556,-7867.297522519305,1621.3092944353618,6,A
1781599342998,1898.7698555556517,-10550.221736289337,924.7438483709242,6,A
1781599343019,-1746.9891492310517,-18317.849624659455,4375.35995979996,6,A
1781599343040,-4667.602681637103,-25479.008117401918,6517.399366194647,6,A
1781599343063,-925.6917910098713,-28587.665814195338,2317.8747404998,6,A
1781599343084,1574.2572408438682,-27338.57984041917,1432.068970938087,6,A
1781599343106,993.3395972240089,-26475.06381353211,3976.747363497189,6,A
1781599343127,384.37765356732876,-23571.24015102353,5184.664321990434,6,A
1781599343149,488.54219656123456,-20225.617591037844,4818.262844580816,6,A
1781599343170,103.93465319912079,-19237.59460213451,4858.526743197258,6,A
1781599343191,845.1054398865275,-18249.571613231175,4910.869811398632,6,A
1781599343214,1289.8079118989715,-16385.9835366005,4306.911332152009,6,A
1781599343235,1926.8141555924726,-14944.112589379776,4802.15728513424,6,A
1781599343256,2443.630541985313,-13751.255566191605,5237.007390191808,6,A
1781599343279,2944.4216140713984,-12349.548155105165,4403.544688831469,6,A
1781599343301,2447.6368705620016,-11807.34041729236,4141.829347824599,6,A
1781599343322,1566.2445836904908,-13936.007832409301,3763.348700830049,6,A
1781599343345,1458.0737121198963,-14767.393030388937,3284.2083072943956,6,A
1781599343366,2111.105270120152,-13775.353687872173,2825.1998630669623,6,A
1781599343388,2688.016585163323,-13273.30948619365,2499.062284273786,6,A
1781599343409,2812.212771040672,-13506.257995772485,2422.5608769025475,6,A
1781599343431,1666.402798107708,-13317.489375941359,4141.829347824599,6,A
1781599343453,500.5611822913006,-13767.320980645318,5237.007390191808,6,A
1781599343474,-216.57163293597404,-13831.582638460168,5748.358902620615,6,A
1781599343496,63.87136743223393,-15080.668612236335,6122.81315975352,6,A
1781599343517,716.9029254324896,-15345.747950722596,5490.669951475389,6,A
1781599343538,793.0231683895746,-16434.179779961636,6102.681210445299,6,A
1781599343561,324.28272491699846,-17374.00652550383,6356.343771728881,6,A
1781599343581,628.7636967453385,-18667.27238902771,6839.510555126179,6,A
1781599343603,1414.0040977763208,-17968.4268602912,6207.367346848047,6,A
1781599343625,1798.6116411384346,-18125.064651214903,5317.535187424691,6,A
1781599343647,2203.2508273839917,-16879.995031052164,5200.769881437011,6,A
1781599343669,1914.7951698624065,-15373.862426016593,4794.104505410951,6,A
1781599343690,1606.3078694573778,-14385.839437113258,4443.80858744791,6,A
1781599343711,1017.377568684141,-13558.470592747051,3795.5598197232025,6,A
1781599343733,801.035825542952,-12851.592356783689,3851.9292777862206,6,A
1781599343755,468.5105536777911,-12723.069041153987,3711.0056326286754,6,A
1781599343776,280.2131105734229,-12658.807383339137,2925.859609608066,6,A
1781599343798,917.2193542669239,-13582.56871442762,2603.7484206765344,6,A
1781599343819,1253.7509547087734,-14168.956341988136,2595.695640953246,6,A
1781599343840,736.934568315933,-15160.9956845049,3171.4693911683594,6,A
1781599343862,644.7890110520933,-16771.553483489603,3956.6154141889683,6,A
1781599343884,825.0737970030841,-17137.041662311567,3280.181917432751,6,A
1781599343906,893.1813828067917,-17606.955035082665,3928.4306851574593,6,A
1781599343927,752.9598826226878,-17679.249400124372,4391.465519246536,6,A
1781599343949,172.04223900282844,-16839.831494917882,4629.0225210835415,6,A
1781599343971,55.85871027885656,-17104.91083340414,4677.339199423271,6,A
1781599343992,148.0042675426963,-17076.796358110143,4661.233639976695,6,A
1781599344014,-132.43873282551164,-16916.142213573017,4697.471148731492,6,A
1781599344036,99.9283246224321,-16418.11436550792,4057.275160730072,6,A
1781599344057,536.6181394814988,-16261.476574584223,3590.2139367793507,6,A
1781599344078,696.8712825490462,-16325.738232399075,3461.369461206738,6,A
1781599344100,416.4282821808382,-16028.528065005388,3529.8180888546885,6,A
1781599344121,320.27639634030976,-15831.726737947407,3751.269531245117,6,A
1781599344144,560.6561109416309,-15775.497787359413,3465.395851068382,6,A
1781599344165,688.8586253956688,-15735.334251225131,3090.9415939354762,6,A
1781599344186,628.7636967453385,-15992.380882484535,3115.0999331053413,6,A
1781599344208,264.1877962666682,-15751.399665678844,3280.181917432751,6,A
1781599344230,43.83972454879051,-15855.824859627975,3195.627730338224,6,A
1781599344251,-88.3691184819361,-16040.577125845673,3477.4750206533145,6,A
1781599344272,-32.28051840829451,-15827.71038433398,3533.8444787163326,6,A
1781599344294,-128.43240424882296,-15847.79215240112,3405.00000314372,6,A
1781599344315,-32.28051840829451,-16004.42994332482,3336.551375495769,6,A
1781599344338,-240.60960439610614,-16333.77093962593,3578.134767194418,6,A
1781599344359,-160.48303286233244,-16446.22884080192,3409.026393005364,6,A
1781599344381,-240.60960439610614,-16831.798787691027,3264.0763579861746,6,A
1781599344403,160.02325327276236,-17213.352380966702,2809.0943036203857,6,A
1781599344424,232.1371676531587,-16843.84784853131,2668.1706584628405,6,A
1781599344445,31.82073881872445,-16221.313038449942,2784.935964450521,6,A
1781599344468,172.04223900282844,-16128.936905341094,2756.751235419012,6,A
1781599344489,268.19412484335686,-15807.628616266838,2539.3261828902278,6,A
1781599344511,143.99793896600764,-15719.268836771418,2845.3318123751833,6,A
1781599344533,-72.34380417518136,-16128.936905341094,3022.4929662875256,6,A
1781599344555,-128.43240424882296,-16213.280331223084,3139.258272275206,6,A
1781599344576,-112.40708994206821,-16136.96961256795,3086.9152040738322,6,A
1781599344596,-32.28051840829451,-16349.836354079644,3066.783254765611,6,A
1781599344619,11.789095935281024,-16277.541989037936,2986.2554575327285,6,A
1781599344640,87.90933889236604,-16128.936905341094,2845.3318123751833,6,A
1781599344662,216.11185334640396,-16418.11436550792,2559.4581321984488,6,A
1781599344683,248.16248195991344,-16466.31060886906,2511.1414538587187,6,A
1781599344705,15.795424511969708,-16478.359669709345,2684.276217909417,6,A
1781599344727,31.82073881872445,-16161.06773424852,2470.877555242277,6,A
1781599344748,139.99161038931894,-16084.757015593383,2515.167843720363,6,A
1781599344770,260.1814676899795,-15928.119224669683,2338.0066898080204,6,A
1781599344791,91.91566746905472,-15799.595909039981,2321.901130361444,6,A
1781599344813,-0.22988979478503244,-15759.4323729057,2511.1414538587187,6,A
1781599344835,67.87769600892261,-16422.130719121353,3022.4929662875256,6,A
1781599344857,139.99161038931894,-16783.602544329886,2635.9595395696874,6,A
1781599344878,-76.35013275187005,-16928.1912744133,2921.833219746422,6,A
1781599344899,-304.7108616231251,-16984.420225001297,3139.258272275206,6,A
1781599344921,7.782767358592338,-16936.223981640156,3070.8096446272557,6,A
1781599344943,392.3903107207061,-16879.995031052164,2523.220623443651,6,A
1781599344964,504.5675108679893,-16506.47414500334,2205.1358243737636,6,A
1781599344986,716.9029254324896,-16558.68674197791,2160.845535895678,6,A
1781599345008,292.23209630348896,-16426.14707273478,2474.9039451039216,6,A
1781599345030,312.2637391869324,-16594.833924498762,2511.1414538587187,6,A
1781599345051,95.92199604574341,-16478.359669709345,2253.4525027134932,6,A
1781599345072,127.97262465925289,-16630.981107019616,2543.3525727518722,6,A
1781599345094,296.23842488017766,-16153.035027021662,2253.4525027134932,6,A
1781599345115,356.33335353050796,-15956.233699963681,2273.5844520217142,6,A
1781599345136,228.13083907647,-15863.857566854833,2281.6372317450023,6,A
1781599345159,352.32702495381926,-15819.677677107122,2160.845535895678,6,A
1781599345181,244.15615338322476,-16189.182209542516,1999.789941429912,6,A
1781599345201,392.3903107207061,-16434.179779961636,1762.232939592907,6,A
1781599345223,276.20678199673426,-16498.441437776484,2132.660806864169,6,A
1781599345246,208.0991961930266,-16237.378452903655,2338.0066898080204,6,A
1781599345267,-84.36278990524742,-16325.738232399075,2627.9067598463994,6,A
1781599345288,43.83972454879051,-16225.32939206337,2571.5373017833813,6,A
1781599345310,212.1055247697153,-16574.75215643162,2527.2470133052952,6,A
1781599345332,139.99161038931894,-16349.836354079644,2543.3525727518722,6,A
1781599345353,115.95363892918684,-16622.94839979276,2398.4025377326825,6,A
1781599345375,107.94098177580946,-16426.14707273478,2406.455317455971,6,A
1781599345397,143.99793896600764,-16566.719449204764,2398.4025377326825,6,A
1781599345418,139.99161038931894,-16550.654034751053,2386.3233681477504,6,A
1781599345440,127.97262465925289,-16598.85027811219,2156.8191460340336,6,A
1781599345461,216.11185334640396,-16337.787293239358,2185.0038750655426,6,A
1781599345483,-128.43240424882296,-16185.165855929088,2346.059469531309,6,A
1781599345504,-16.25520410153977,-16132.953258954522,2060.1857893545744,6,A
1781599345526,27.814410242035763,-15960.250053577109,2092.3969082477274,6,A
1781599345548,3.7764387819036527,-15663.039886183424,2092.3969082477274,6,A
1781599345570,143.99793896600764,-15554.598338620863,1923.2885340586731,6,A
1781599345591,23.80808166534708,-15602.794581982,1971.605212398403,6,A
1781599345613,-228.5906186660401,-15570.663753074574,2176.9510953422546,6,A
1781599345634,-176.5083471690872,-15566.647399461146,2237.3469432669167,6,A
1781599345656,-132.43873282551164,-15847.79215240112,2015.8955008764885,6,A
1781599345678,-104.39443278869085,-16321.721878785645,2168.898315618966,6,A
1781599345699,79.89668173898868,-16377.950829373642,1975.631602260047,6,A
1781599345720,164.02958184945106,-16253.443867357368,2100.4496879710155,6,A
1781599345743,-88.3691184819361,-16301.640110718505,2414.5080971792595,6,A
1781599345765,-12.248875524851087,-16570.73580281819,2450.7456059340566,6,A
1781599345786,-44.29950413836057,-16851.880555758165,2390.3497580093945,6,A
1781599345808,-124.42607567213427,-16827.782434077595,2370.2178087011735,6,A
1781599345829,-172.50201859239849,-16831.798787691027,1931.3413137819614,6,A
1781599345850,168.03591042613974,-16851.880555758165,1786.3912787627721,6,A
1781599345873,300.24475345686636,-16426.14707273478,1415.9634114915104,6,A
1781599345894,91.91566746905472,-16209.263977609657,1492.464818862749,6,A
1781599345916,-104.39443278869085,-15932.135578283112,1665.5995829134476,6,A
1781599345937,-136.44506140220034,-16128.936905341094,1862.8926861340108,6,A
1781599345960,-284.6792187396817,-16454.261548028775,1798.4704483477044,6,A
1781599345981,-252.62859012617218,-16478.359669709345,1677.67875249838,6,A
1781599346002,-216.57163293597404,-15932.135578283112,1834.7079571025017,6,A
1781599346024,-460.95767611398384,-15891.97204214883,1963.5524326751147,6,A
1781599346046,-412.8817331937196,-16181.14950231566,1959.5260428134704,6,A
1781599346067,-116.4134185187569,-16313.68917155879,1440.1217506613752,6,A
1781599346089,-24.267861254917143,-16140.985966181377,1323.356444673695,6,A
1781599346111,-404.86907604034224,-16454.261548028775,1705.863481529889,6,A
1781599346132,-384.8374331568988,-16458.277901642203,1637.4148538819386,6,A
1781599346154,-320.73617592987983,-16128.936905341094,1589.0981755422088,6,A
1781599346175,-497.014633304182,-15410.009608537448,1432.068970938087,6,A
1781599346197,-765.4386479423239,-13470.110813251631,783.8202032133789,6,A
1781599346219,-1214.1474485314566,-12176.844949727754,1480.3856492778168,6,A
1781599346240,232.1371676531587,-11417.754116789825,759.661864043514,6,A
1781599346262,-244.61593297279484,-11787.25864922522,1738.0746004230423,6,A
1781599346284,-1150.0461913044376,-13337.571144008502,3441.2375118985174,6,A
1781599346305,-2251.7865498938263,-17956.37779945092,5494.696341337033,6,A
1781599346327,-3101.1282081518275,-22466.742907330776,6384.52850076039,6,A
1781599346348,-1815.0967350347594,-28595.698521422193,4467.966926617775,6,A
1781599346370,1209.681340365198,-33005.65478896635,2603.7484206765344,6,A
1781599346391,1514.162312193538,-26780.306688152654,4488.098875925996,6,A
1781599346414,-456.95134753729513,-23515.011200435532,5615.488037186357,6,A
1781599346435,-1614.7803062003252,-20000.701788685867,6183.209007678182,6,A
1781599346457,-793.4829479791447,-17819.82177659436,4983.344828908226,6,A
1781599346478,-428.90704750047433,-14494.28098467582,3847.902887924576,6,A
1781599346500,-545.0905762244462,-11839.471246199786,2970.149898086152,6,A
1781599346521,-208.55897578259666,-9216.792336631177,3195.627730338224,6,A
1781599346543,556.6497823649422,-7803.035864704454,2281.6372317450023,6,A
1781599346564,452.4852393710364,-5288.798502698407,2060.1857893545744,6,A
1781599346586,268.19412484335686,-2907.10080993549,2442.692826210768,6,A
1781599346607,148.0042675426963,-2714.315836490937,2555.4317423368043,6,A
1781599346629,913.2130256902352,-3340.8670001857345,2269.5580621600698,6,A
1781599346651,1121.5421116780467,-5441.419940008678,2861.43737182176,6,A
1781599346672,688.8586253956688,-6670.424145717705,4455.887757032843,6,A
1781599346694,-1029.8563340037772,-7578.1200623524755,5285.324068531538,6,A
1781599346716,-2331.9131214276,-15751.399665678844,8107.823361544086,6,A
1781599346737,-2652.4194075626947,-27157.8439278149,12174.477121804677,6,A
1781599346758,564.6624395183196,-31354.933453847363,7672.973256486518,6,A
1781599346780,752.9598826226878,-32563.855891489246,8413.828991029042,6,A
1781599346802,-2812.672550630242,-32563.855891489246,11159.826876670351,6,A
1781599346823,-2840.7168506670628,-27824.558627643983,9968.015477623683,6,A
1781599346846,-3477.7230943605637,-24169.67683942433,10092.833563334652,6,A
1781599346867,-5000.127953502264,-21530.932515402008,10886.032366078549,6,A
1781599346889,-3529.805365857517,-18133.09735844176,8554.752636186588,6,A
1781599346910,-2115.571378286411,-16639.01381424647,6795.2202666480935,6,A
1781599346932,-1775.0334492678726,-16173.116795088803,6525.452145917935,6,A
1781599346953,-340.7678188133233,-13903.877003501875,4512.257215095861,6,A
1781599346975,833.0864541564615,-9815.229025031978,3098.9943736587647,6,A
1781599346997,688.8586253956688,-7409.433210588491,3706.979242767031,6,A
1781599347017,516.5864965980553,-5557.894194798096,4769.946166241087,6,A
1781599347039,220.11818192309266,-5083.964468413569,5571.197748708272,6,A
1781599347062,552.6434537882535,-3617.9953995122796,5353.772696179488,6,A
1781599347082,1105.5167973712921,-633.8446647351342,4363.280790215027,6,A
1781599347104,981.3206114939428,-424.99427683686827,4761.893386517798,6,A
1781599347126,1185.6433689050657,-1577.687763890759,5631.593596632934,6,A
1781599347147,1966.8774413593594,-4887.163141355588,3670.741734012234,6,A
1781599347169,2627.9216565129923,-10714.892234439892,1758.206549731263,6,A
1781599347191,328.28905349368716,-22245.843458592226,6682.481350522057,6,A
1781599347212,-1694.9068777340988,-29736.3429476358,13740.742777984251,6,A
1781599347234,576.6814252483856,-30551.662731161723,13483.053826839026,6,A
1781599347257,3349.060800316956,-31222.39378460423,12291.242427792358,6,A
1781599347277,3052.592485641993,-28985.284821924728,13668.267760474657,6,A
1781599347299,2038.9913557397556,-23225.833740268703,13587.739963241773,6,A
1781599347321,1538.20028365367,-19000.629738942247,12359.691055440308,6,A
1781599347343,921.2256828436125,-17691.29846096466,12871.042567869115,6,A
1781599347364,1850.6939126353875,-16916.142213573017,10571.973956870306,6,A
1781599347385,2808.2064424639834,-16659.095582313614,8433.960940337263,6,A
1781599347407,3493.2886290777483,-16317.705525172218,7052.909217793319,6,A
1781599347428,4655.123916317467,-12843.559649556833,3864.0084473711527,6,A
1781599347451,4795.345416501571,-8582.208465709524,2652.065099016264,6,A
1781599347471,4022.1240012006547,-5573.959609251809,3058.730475042323,6,A
1781599347494,3597.453172071654,-4501.593194466482,4238.462704504059,6,A
1781599347515,3785.7506151760226,-3401.1123043871576,3606.319496225927,6,A
1781599347536,4398.718887409391,-2340.794950442115,2374.244198562818,6,A
1781599347557,4370.67458737257,-493.2722882651475,1126.0633414531317,6,A
1781599347579,3188.8076572494083,-1714.2437867473175,3002.361016979305,6,A
1781599347601,1950.8521270526046,-4389.135293290492,5458.458832582236,6,A
1781599347622,508.57383944467796,-7979.755423695295,7383.073186448139,6,A
1781599347644,1197.6623546351318,-16245.41116013051,7532.049611328973,6,A
1781599347665,2988.491228414974,-26981.12436882406,10028.411325548346,6,A
1781599347688,4058.180958390853,-33005.65478896635,13487.08021670067,6,A
1781599347709,5764.876932060233,-32439.348929472973,14167.540103318532,6,A
1781599347731,6289.705975606451,-25005.078391017392,10668.607313549766,6,A
1781599347752,4010.1050154705886,-20928.47947338778,11083.325469299112,6,A
1781599347774,2219.2761416907465,-17868.018019955496,12279.163258207425,6,A
1781599347796,2547.7950849792187,-16687.210057607608,10877.97958635526,6,A
1781599347817,2431.611556255247,-15096.734026690048,10459.23504074427,6,A
1781599347838,2247.3204417275674,-14570.591703330956,9448.61118547159,6,A
1781599347860,2547.7950849792187,-12261.188375609745,7205.912032535796,6,A
1781599347882,3112.6874142923234,-8349.259956130689,4979.318439046582,6,A
1781599347904,2928.396299764644,-6549.933537314859,4133.776568101311,6,A
1781599347925,2932.4026283413323,-5549.861487571239,4335.096061183518,6,A
1781599347947,2972.4659141082193,-3754.5514223688383,3324.472205910837,6,A
1781599347968,3172.7823429426535,-1609.8185927981845,2217.214993958696,6,A
1781599347990,3325.0228288568237,-3180.212855648607,2096.4232981093714,6,A
1781599348011,2503.725470635643,-4979.539274464436,3042.6249155957466,6,A
1781599348034,2295.3963846478314,-10718.90858805332,3924.4042952958152,6,A
1781599348055,3793.7632723293996,-15671.07259341028,2833.252642790251,6,A
1781599348077,5568.566831802487,-19599.06642734305,2531.2734031669397,6,A
1781599348098,4983.6428596059395,-21032.904667336912,4455.887757032843,6,A
1781599348120,3625.497472108475,-21418.47461422602,6670.402180937124,6,A
1781599348141,3353.0671288936446,-21249.787762462034,6179.182617816538,6,A
1781599348163,5957.18070374129,-25663.760383619614,2486.983114688854,6,A
1781599348185,7066.9337194840555,-29447.16548746897,3437.211122036873,6,A
1781599348206,4855.440345151901,-27218.089232016326,5462.48522244388,6,A
1781599348228,2996.5038855683515,-23020.999705983868,5788.622801237056,6,A
1781599348250,1574.2572408438682,-20181.437701290135,5579.25052843156,6,A
1781599348271,720.9092540091783,-18241.53890600432,4931.001760706852,6,A
1781599348292,384.37765356732876,-17225.40144180699,3884.1403966793737,6,A
1781599348314,813.054811273018,-15458.205851898585,2458.798385657345,6,A
1781599348336,1301.8268976290376,-12735.118101994272,824.0841018298205,6,A
1781599348357,833.0864541564615,-11959.961854602632,723.4243552887167,6,A
1781599348379,-12.248875524851087,-11477.99942099125,836.1632714147529,6,A
1781599348401,2655.965956549813,-10971.938865699296,-1430.694220690903,6,A
1781599348422,2455.649527715379,-9935.719633434823,-1088.4510824511503,6,A
1781599348443,2127.130584426907,-9184.661507723751,-1994.3888013210837,6,A
1781599348466,3188.8076572494083,-8686.633659658657,-2038.6790897991693,6,A
1781599348487,2339.465998991407,-10963.90615847244,-653.6009773935822,6,A
1781599348508,2531.769770672464,-12036.272573257767,-718.0232151798886,6,A
1781599348530,3597.453172071654,-14630.837007532378,-399.93841611000084,6,A
1781599348552,1702.4597552979062,-13072.49180552224,34.91168894756726,6,A
1781599348573,1309.839554782415,-12694.95456585999,1262.9605967490327,6,A
1781599348595,-32.28051840829451,-12807.41246703598,3582.1611570560626,6,A
1781599348617,-1009.8246911203337,-12457.989702667726,5736.2797330356825,6,A
1781599348638,-3441.6661371703653,-17623.02044953638,8844.652706224966,6,A
1781599348660,-3934.444552103074,-23751.976063627797,9939.830748592174,6,A
1781599348681,1630.3458409175098,-26583.50536109467,4878.658692505478,6,A
1781599348703,4006.0986868939003,-29848.80084881179,2966.1235082245075,6,A
1781599348725,6277.686989876384,-27937.01652881997,965.0077469873656,6,A
1781599348747,4410.737873139457,-24350.4127520286,1951.4732630901822,6,A
1781599348768,3817.801243789532,-19868.162119442735,1621.3092944353618,6,A
1781599348790,3024.5481856051724,-16550.654034751053,1343.4883939819156,6,A
1781599348811,1946.845798475916,-16132.953258954522,1782.3648889011279,6,A
1781599348833,1401.9851120462547,-15237.306403160035,1315.3036649504065,6,A
1781599348854,2047.004012893133,-13783.38639509903,276.4950806462162,6,A
1781599348876,2491.7064849055773,-12715.036333927132,-226.8036520593024,6,A
1781599348897,1958.864784205982,-11670.784394435801,-412.01758569493325,6,A
1781599348919,1153.5927402915563,-10542.18902906248,1009.2980354654513,6,A
1781599348941,1574.2572408438682,-10277.109690576219,-613.3370787771407,6,A
1781599348962,1954.8584556292933,-9465.806260663725,445.60345483527044,6,A
1781599348985,1958.864784205982,-9120.399849908901,-339.5425681853386,6,A
1781599349005,925.2320114203012,-10582.352565196763,1210.6175285476588,6,A
1781599349027,1073.4661687577825,-13385.767387369639,1250.8814271641002,6,A
1781599349050,2716.0608852001433,-13213.064181992228,-879.0788096456546,6,A
1781599349072,2559.814070709285,-15353.780657949452,256.36313133799547,6,A
1781599349093,1273.782597592217,-18611.043438439712,2889.622100853269,6,A
1781599349115,1618.3268551874437,-21631.341355737713,3167.443001306715,6,A
1781599349137,3849.8518724030414,-23093.294071025575,1657.5468031901594,6,A
1781599349158,4290.548015838796,-22177.565447163946,1238.8022575791679,6,A
1781599349180,1926.8141555924726,-21065.035496244338,3558.0028178861976,6,A
1781599349201,-965.7550767767582,-20450.533393389826,7451.52181409609,6,A
1781599349223,-36.2868469849832,-19446.444990032778,5482.617171752101,6,A
1781599349245,83.90301031567735,-17988.508628358344,4757.866996656154,6,A
1781599349267,-813.5145908625881,-17920.230616930065,6332.185432559017,6,A
1781599349288,-953.7360910466921,-16715.324532901606,6440.897958823408,6,A
1781599349310,11.789095935281024,-16647.046521473327,4375.35995979996,6,A
1781599349331,556.6497823649422,-16385.9835366005,4190.146026164329,6,A
1781599349353,1137.5674259848015,-17337.859342982978,3606.319496225927,6,A
1781599349375,1409.997769199632,-15795.579555426553,3243.944408677954,6,A
1781599349396,2095.079955813397,-15988.364528871107,2990.2818473943726,6,A
1781599349417,1782.5863268316798,-15345.747950722596,2499.062284273786,6,A
1781599349439,945.2636543037447,-13650.8467258559,1790.4176686244161,6,A
1781599349461,1105.5167973712921,-12462.006056281156,771.7410336284465,6,A
1781599349482,1061.4471830277166,-11373.574227042116,582.5007101311716,6,A
1781599349503,1614.320526610755,-10465.878310407345,-536.8356714059018,6,A
1781599349525,1301.8268976290376,-11477.99942099125,-480.4662133428838,6,A
1781599349547,1822.6496125985668,-12678.889151406278,-830.7621313059248,6,A
1781599349568,1369.9344834327453,-12891.755892917972,-1265.612236363493,6,A
1781599349590,716.9029254324896,-13948.056893249586,127.51865576538269,6,A
1781599349612,296.23842488017766,-13257.244071739937,352.996488017455,6,A
1781599349634,67.87769600892261,-15807.628616266838,1448.1745303846635,6,A
1781599349655,-845.5652194760976,-18189.32630902975,4347.175230768451,6,A
1781599349677,508.57383944467796,-20980.692070362347,4178.066856579397,6,A
1781599349699,2167.193870193794,-23418.61871371326,4516.283604957505,6,A
1781599349720,2567.826727862662,-23486.896725141538,5824.860309991854,6,A
1781599349741,1986.9090842428027,-21490.768979267727,5836.939479576786,6,A
1781599349763,528.6054823281214,-19193.414712386802,7133.437015026202,6,A
1781599349785,-781.4639622490787,-16153.035027021662,6352.317381867237,6,A
1781599349806,-1334.3373058321172,-14779.44209122922,6859.6425044344,6,A
1781599349828,-1362.3816058689379,-14871.818224338069,6102.681210445299,6,A
1781599349850,-28.274189831605828,-16016.479004165103,5394.03659479593,6,A
1781599349871,973.3079543405654,-15671.07259341028,2881.5693211299804,6,A
1781599349894,436.45992506428166,-15088.701319463193,2692.3289976327055,6,A
1781599349915,-1186.103148494636,-14438.052034087825,4669.286419699983,6,A
1781599349937,-1374.400591599004,-15209.191927866037,5679.910274972664,6,A
1781599349958,-1142.0335341510604,-16799.6679587836,5724.2005634507495,6,A
1781599349979,-164.4893614390211,-16888.02773827902,4387.439129384892,6,A
1781599350001,793.0231683895746,-16008.446296938248,1947.446873228538,6,A
1781599350023,1337.8838548192357,-15373.862426016593,1347.5147838435598,6,A
1781599350045,660.814325358848,-15261.404524840604,2672.197048324485,6,A
1781599350066,-809.5082622858994,-15169.028391731756,4041.1696012834955,6,A
1781599350088,-208.55897578259666,-14807.556566523219,3211.733289784801,6,A
1781599350109,492.54852513792326,-14859.769163497785,2015.8955008764885,6,A
1781599350131,-132.43873282551164,-14731.245847868084,3558.0028178861976,6,A
1781599350152,-953.7360910466921,-15948.200992736825,4943.080930291785,6,A
1781599350174,-1634.8119490837685,-16811.717019623884,5313.508797563047,6,A
1781599350195,-432.91337607716304,-16952.28939609387,3823.7445487547116,6,A
1781599350217,945.2636543037447,-16305.656464331934,1496.4912087243933,6,A
1781599350238,1181.637040328377,-15498.369388032866,1206.5911386860146,6,A
1781599350260,744.9472254693104,-15799.595909039981,1359.5939534284923,6,A
1781599350281,240.1498248065361,-17868.018019955496,2124.6080271408805,6,A
1781599350303,464.50422510110246,-18474.487415583153,1987.7107718449795,6,A
1781599350325,1245.738297555396,-17414.170061638113,795.8993727983114,6,A
1781599350346,123.96629608256421,-15787.546848199698,932.7966280942125,6,A
1781599350368,-645.2487906416634,-15871.890274081688,2160.845535895678,6,A
1781599350389,-112.40708994206821,-15904.021102989114,1190.485579239438,6,A
1781599350411,-132.43873282551164,-15626.89270366257,1379.725902736713,6,A
1781599350433,-348.78047596670064,-16000.413589711392,1250.8814271641002,6,A
1781599350454,79.89668173898868,-17145.074369538423,1544.8078870641232,6,A
1781599350476,981.3206114939428,-18651.206974573994,1415.9634114915104,6,A
1781599350497,-593.1665191447104,-18193.342662643183,2100.4496879710155,6,A
1781599350519,-2043.4574639060145,-17149.09072315185,2519.194233582007,6,A
1781599350541,-2259.7992070472033,-15570.663753074574,1520.6495478942581,6,A
1781599350562,-2111.565049709722,-15582.712813914859,1146.1952907613525,6,A
1781599350584,-909.6664767031166,-15763.448726519127,147.65060507360343,6,A
1781599350606,484.53586798454586,-14703.131372574086,-283.1731101223205,6,A
1781599350628,576.6814252483856,-14152.890927534423,-97.95917648668966,6,A
1781599350649,-344.77414739001193,-15410.009608537448,1371.6731230134246,6,A
1781599350670,-412.8817331937196,-15249.35546400032,2096.4232981093714,6,A
1781599350692,-280.672890162993,-15984.348175257679,2933.9123893313545,6,A
1781599350714,-1422.4765345192682,-15156.97933089147,2776.8831847272327,6,A
1781599350736,-2027.4321495992597,-14514.36275274296,2921.833219746422,6,A
1781599350757,-2980.938350851167,-16177.13314870223,3127.179102690274,6,A
1781599350779,-2592.324478912364,-19948.489191711302,2905.7276602998454,6,A
1781599350800,-1001.8120339669563,-21125.280800445762,2458.798385657345,6,A
1781599350822,-204.552647205908,-20273.813834398985,1138.142511038064,6,A
1781599350844,-1314.3056629486737,-17546.70973088124,832.1368815531088,6,A
1781599350865,-1366.3879344456266,-15140.913916437758,1085.79944283669,6,A
1781599350887,-1698.9132063107875,-13353.636558462214,1601.1773451271413,6,A
1781599350908,-1310.299334371985,-12393.728044852876,1303.2244953654742,6,A
1781599350930,-1354.3689487155607,-12875.69047846426,1822.6287875175694,6,A
1781599350953,-765.4386479423239,-14060.514794425575,2180.9774852038986,6,A
1781599350973,224.12451049978134,-15221.240988706322,1838.734346964146,6,A
1781599350995,813.054811273018,-16209.263977609657,1395.8314621832897,6,A
1781599351016,1305.8332262057263,-16422.130719121353,1327.382834535339,6,A
1781599351038,1349.9028405493018,-17390.071939957543,1146.1952907613525,6,A
1781599351059,1606.3078694573778,-18920.302666673684,1122.0369515914874,6,A
1781599351081,1502.1433264634718,-18848.008301631977,1323.356444673695,6,A
1781599351103,47.84605312547919,-18715.468632388845,2305.7955709148673,6,A
1781599351125,-2299.8624928140903,-18000.557689198627,3533.8444787163326,6,A
1781599351147,-3012.988979464676,-17177.20519844585,3602.293106364283,6,A
1781599351168,-3037.0269509248083,-15936.15193189654,3908.2987358492387,6,A
1781599351190,-3625.957251698045,-15084.684965849763,2913.780440023134,6,A
1781599351211,-4495.330552839489,-13566.503299973907,2756.751235419012,6,A
1781599351233,-2303.868821390779,-14393.872144340115,2015.8955008764885,6,A
1781599351254,119.95996750587553,-14819.605627363502,1130.0897313147757,6,A
1781599351276,1373.940812009434,-14345.675900978977,268.44230092292787,6,A
1781599351297,1490.124340733406,-15285.502646521174,562.3687608229508,6,A
1781599351319,909.2066971135465,-16988.436578614725,1238.8022575791679,6,A
1781599351341,993.3395972240089,-18815.87747272455,1742.1009902846863,6,A
1781599351362,1221.700326095264,-20157.339579609565,1613.2565147120736,6,A
1781599351383,-244.61593297279484,-18751.6158149097,1460.253699969596,6,A
1781599351406,-1262.2233914517208,-16908.10950634616,1874.9718557189433,6,A
1781599351427,-288.6855473163704,-15715.25248315799,892.532729477771,6,A
1781599351448,-1097.9639198074847,-16032.544418618816,1572.9926160956322,6,A
1781599351470,-2035.444806752637,-16486.3923769362,1814.5760077942812,6,A
1781599351492,-2115.571378286411,-16381.96718298707,1653.5204133285151,6,A
1781599351514,-1410.4575487892023,-16389.999890213927,1126.0633414531317,6,A
1781599351536,-937.7107767399374,-16321.721878785645,787.8465930750231,6,A
1781599351557,-961.7487482000695,-15735.334251225131,675.107676948987,6,A
1781599351578,-1750.9954778077404,-15791.563201813125,1311.2772750887625,6,A
1781599351600,-1105.976576960862,-15972.299114417394,783.8202032133789,6,A
1781599351622,3.7764387819036527,-16036.560772232246,582.5007101311716,6,A
1781599351643,240.1498248065361,-16201.231270382801,820.0577119681762,6,A
1781599351665,652.8016682054706,-16293.60740349165,-122.11751565655454,6,A
1781599351687,1201.6686832118205,-16450.245194415347,-516.7037220976812,6,A
1781599351708,933.2446685736786,-16811.717019623884,30.885299085923112,6,A
1781599351729,809.0484826963294,-16867.94597021188,-150.30224468806358,6,A
1781599351751,781.0041826595086,-16924.174920799873,-444.2287045880865,6,A
1781599351772,296.23842488017766,-16723.357240128462,-250.96199122916732,6,A
1781599351794,-545.0905762244462,-16365.901768533357,95.30753687222949,6,A
1781599351815,-945.7234338933147,-16124.920551727664,348.9700981558109,6,A
1781599351838,-1041.875319733843,-15867.87392046826,276.4950806462162,6,A
1781599351859,-725.3753621754371,-15940.168285509968,183.88811382840078,6,A
1781599351880,-276.6665615863043,-15823.694030720551,95.30753687222949,6,A
1781599351902,-280.672890162993,-16153.035027021662,328.8381488475901,6,A
1781599351925,-460.95767611398384,-16474.343316095918,252.3367414763513,6,A
1781599351945,-472.9766618440499,-16655.079228700186,127.51865576538269,6,A
1781599351967,-689.3184049852389,-16731.38994735532,312.7325894010135,6,A
1781599351989,-260.6412472795496,-17153.107076765278,-134.196685241487,6,A
1781599352010,-493.0083047274933,-16506.47414500334,-158.35502441135188,6,A
1781599352032,-448.9386903839178,-16229.345745676797,-1044.1607939730648,6,A
1781599352053,-2508.191578801902,-17868.018019955496,598.6062695777481,6,A
1781599352075,-2940.87506508428,-17763.592826006367,1126.0633414531317,6,A
1781599352097,-2696.48902190627,-17072.780004496715,195.9672834133332,6,A
1781599352118,-5008.1406106556415,-16815.73337323731,1496.4912087243933,6,A
1781599352140,-6662.754312828069,-15594.761874755144,2430.613656625836,6,A
1781599352162,-5785.368354533246,-14707.147726187513,1943.420483366894,6,A
1781599352184,-5176.406410876566,-13915.92606434216,2003.816331291556,6,A
1781599352205,-4972.083653465444,-13634.781311402186,1967.5788225367587,6,A
1781599352226,-4443.248281342537,-14072.56385526586,1214.6439184093028,6,A
1781599352248,-3545.8306801642716,-14518.37910635639,1742.1009902846863,6,A
1781599352270,-1466.546148862844,-15193.126513412324,791.8729829366672,6,A
1781599352291,-753.4196622122579,-15325.666182655455,-2755.376485171828,6,A
1781599352314,-1358.3752772922494,-16285.574696264792,1424.0161912147987,6,A
1781599352335,-3093.11555099845,-15936.15193189654,1999.789941429912,6,A
1781599352356,-3465.7041086304976,-19707.50797490561,3606.319496225927,6,A
1781599352378,-2375.982735771175,-19767.753279107033,3449.2902916218054,6,A
1781599352400,-2544.2485359921,-19827.998583308454,2885.595710991625,6,A
1781599352421,-4022.583780790225,-17791.70730130036,3288.2346971560396,6,A
1781599352443,-4114.729338054065,-16181.14950231566,2285.6636216066463,6,A
1781599352465,-4234.919195354725,-14558.542642490671,1564.9398363723437,6,A
1781599352486,-4519.368524299622,-14365.757669046117,1464.28008983124,6,A
1781599352507,-5280.570953870472,-14618.787946692093,1001.245255742163,6,A
1781599352530,-6947.203641772965,-14863.785517111213,2801.0415238970977,6,A
1781599352551,-8024.906028902222,-14654.935129212947,3243.944408677954,6,A
1781599352573,-8633.8679725589,-14843.703749044073,2639.9859294313314,6,A
1781599352594,-9531.285573737166,-14546.493581650386,3388.8944436971433,6,A
1781599352616,-10332.551289074903,-13269.293132580222,3151.3374418601384,6,A
1781599352638,-11750.791605222697,-11827.4221853595,3280.181917432751,6,A
1781599352660,-12151.424462891566,-10650.63057662504,3843.876498062932,6,A
1781599352681,-10276.462689001262,-10405.633006205922,3175.4957810300034,6,A
1781599352703,-8930.336287233864,-10831.366489229309,3904.2723459875942,6,A
1781599352724,-8926.329958657174,-11847.503953426642,3485.527800376603,6,A
1781599352746,-9563.336202350676,-12638.725615271997,4109.618228931446,6,A
1781599352767,-8890.273001466976,-12743.150809221128,3807.6389893081346,6,A
1781599352789,-7744.463028534014,-13454.045398797918,4165.987686994464,6,A
1781599352811,-7263.703599331371,-14181.005402828421,4435.755807724622,6,A
1781599352832,-6730.861898631776,-13221.096889219083,3272.129137709463,6,A
1781599352854,-7195.596013527664,-14365.757669046117,3996.87931280541,6,A
1781599352876,-5320.634239637359,-14594.689825011525,3598.266716502639,6,A
1781599352897,-3537.818023010894,-14650.918775599519,2813.12069348203,6,A
1781599352919,-2936.868736507591,-15241.322756773463,2233.3205534052727,6,A
1781599352940,-1374.400591599004,-16610.899338952473,2265.5316722984257,6,A
1781599352963,-1382.4132487523814,-17876.050727182355,2958.0707285012195,6,A
1781599352984,-1670.8689062739668,-18333.91503911317,2925.859609608066,6,A
1781599353006,-501.0209618808707,-18137.113712055187,1975.631602260047,6,A
1781599353027,23.80808166534708,-17888.09978802264,1210.6175285476588,6,A
1781599353049,-364.8057902734554,-17864.00166634207,2003.816331291556,6,A
1781599353071,-897.6474909730505,-16908.10950634616,1705.863481529889,6,A
1781599353092,-1198.122134224702,-15988.364528871107,816.0313221065321,6,A
1781599353114,-2211.7232641269393,-15044.521429715482,703.292405980496,6,A
1781599353135,-2552.2611931454776,-14265.348828710412,332.8645387092343,6,A
1781599353157,-2211.7232641269393,-14602.72253223838,401.3131663571848,6,A
1781599353178,-272.66023300961564,-16040.577125845673,167.78255438182418,6,A
1781599353200,448.4789107943477,-15984.348175257679,284.5478603695045,6,A
1781599353221,1065.4535116044053,-15285.502646521174,324.81175898594597,6,A
1781599353244,1750.5356982181704,-14305.512364844695,-1.3258198072300804,6,A
1781599353265,1878.7382126722082,-13562.48694636048,38.93807880921141,6,A
1781599353286,2595.871027899483,-15084.684965849763,-315.3842290154737,6,A
1781599353308,3505.3076148078144,-16743.439008195604,1315.3036649504065,6,A
1781599353330,4611.054301973892,-19209.480126840514,1967.5788225367587,6,A
1781599353351,3032.56084275855,-21093.149971538336,3151.3374418601384,6,A
1781599353373,-957.7424196233808,-21237.73870162175,5116.215694342483,6,A
1781599353395,-4455.267267072603,-20968.64300952206,6722.745249138498,6,A
1781599353416,-4479.305238532735,-19121.120347345095,6448.950738546697,6,A
1781599353439,-3702.07749465513,-17221.385088193558,4935.028150568496,6,A
1781599353460,-3353.5269084832144,-16136.96961256795,4258.59465381228,6,A
1781599353481,-3061.0649223849405,-15839.759445174264,3779.454260276626,6,A
1781599353503,-3830.280009109168,-15397.960547697163,3763.348700830049,6,A
1781599353524,-5228.488682373519,-14823.621980976932,1387.7786824600014,6,A
1781599353546,-3790.216723342281,-15751.399665678844,1540.781497202479,6,A
1781599353567,-1787.0524349979387,-16542.621327524193,1496.4912087243933,6,A
1781599353590,-1178.0904913412585,-16498.441437776484,1424.0161912147987,6,A
1781599353611,-769.4449765190126,-15574.680106688003,1456.2273101079518,6,A
1781599353632,-48.305832715049256,-14413.953912407256,711.3451857037843,6,A
1781599353653,548.6371252115648,-14120.760098626997,1254.9078170257444,6,A
1781599353675,889.1750542301031,-13747.239212578177,1367.6467331517806,6,A
1781599353697,1061.4471830277166,-14417.970266020684,1262.9605967490327,6,A
1781599353719,2063.029327199888,-15803.61226265341,1721.9690409764657,6,A
1781599353741,3064.611471372059,-15863.857566854833,1983.6843819833352,6,A
1781599353762,3304.99118597338,-15859.841213241405,1758.206549731263,6,A
1781599353784,3765.718972292579,-15349.764304336024,2289.690011468291,6,A
1781599353805,4026.1303297773434,-15438.124083831444,3344.6041552190577,6,A
1781599353827,4402.72521598608,-15703.203422317705,4117.671008654735,6,A
1781599353848,4587.016330513759,-15900.004749375687,4379.386349661604,6,A
1781599353870,4959.604888145807,-16128.936905341094,4182.093246441041,6,A
1781599353892,3689.5987293354938,-15727.301543998274,5659.778325664443,6,A
1781599353914,3629.5038006851637,-15185.093806185469,6102.681210445299,6,A
1781599353936,4795.345416501571,-14602.72253223838,6328.159042697372,6,A
1781599353957,5636.674417606195,-15056.570490555767,6126.839549615164,6,A
1781599353979,5652.69973191295,-14839.687395430645,8079.638632512577,6,A
1781599354000,5079.7947454464675,-14940.096235766348,8808.415197470169,6,A
1781599354022,4947.585902415741,-14964.194357446919,9166.763895156499,6,A
1781599354044,4406.731544562768,-16068.69160113967,8091.717802097509,6,A
1781599354065,3869.883515286485,-15614.843642822285,8011.190004864627,6,A
1781599354086,4546.953044746872,-14325.594132911836,6988.486980007013,6,A
1781599354108,5580.585817532553,-13317.489375941359,8836.599926501678,6,A
1781599354129,5736.832632023412,-11445.868592083823,8631.254043557827,6,A
1781599354151,4218.434101458401,-10526.123614608767,7540.102391052261,6,A
1781599354174,3425.181043274041,-9887.523390073686,7628.682968008432,6,A
1781599354194,1478.1053550033398,-11992.092683510056,7532.049611328973,6,A
1781599354217,-873.6095195129184,-13341.58749762193,6706.639689691922,6,A
1781599354238,-1771.0271206911839,-15450.17314467173,8321.222024211227,6,A
1781599354260,468.5105536777911,-16474.343316095918,7713.237155102959,6,A
1781599354281,1510.1559836168492,-17060.730943656432,8530.594297016722,6,A
1781599354303,1397.978783469566,-16634.997460633043,8780.23046843866,6,A
1781599354324,-1951.3119066421748,-15859.841213241405,7278.387050045391,6,A
1781599354346,-5400.760811171132,-14867.801870724641,5426.247713689083,6,A
1781599354367,-4743.722924594188,-14458.133802154965,4810.210064857528,6,A
1781599354390,-1582.7296775868156,-14956.161650220061,3437.211122036873,6,A
1781599354411,-144.45771855557769,-14156.90728114785,4012.9848722519864,6,A
1781599354433,-861.5905337828524,-13980.187722157012,4552.521113712302,6,A
1781599354454,-1037.8689911571546,-14614.771593078665,3803.6125994464905,6,A
1781599354475,472.5168822544798,-16506.47414500334,4987.37121876987,6,A
1781599354497,2079.0546415066424,-16703.275472061323,4540.44194412737,6,A
1781599354520,3353.0671288936446,-17008.518346681863,3723.084802213608,6,A
1781599354540,3521.332929114569,-18474.487415583153,4411.597468554757,6,A
1781599354562,5272.098517127524,-18257.60432045803,2853.3845920984713,6,A
1781599354585,8593.344907202445,-19603.082780956476,3719.0584123519634,6,A
1781599354605,9791.237151632362,-21534.948869015436,1069.6938833901136,6,A
1781599354627,8096.560163693048,-23454.765896234112,2797.0151340354532,6,A
1781599354649,6349.800904256781,-25940.88878294616,4729.682267624645,6,A
1781599354671,8401.04113552139,-29226.26603873042,6489.214637163138,6,A
1781599354693,11525.977425338562,-20719.629085489512,-2952.6695883923912,6,A
1781599354714,7555.705805840075,-21482.73627204087,1673.652362636736,6,A
1781599354736,5099.826388329911,-17767.609179619794,1436.095360799731,6,A
1781599354759,3877.8961724398623,-11249.067265025842,91.28114701058534,6,A
1781599354780,3409.155728967286,-7104.190335967949,-29.510548838739123,6,A
1781599354801,3052.592485641993,-4023.647114468527,-1285.7441856717137,6,A
1781599354823,3709.6303722189373,-159.91493835060766,-2227.9194132964444,6,A
1781599354844,4142.313858501316,201.55688685792947,-1889.7026649183358,6,A
1781599354866,3477.2633147709935,988.7621950898548,-959.6066068785375,6,A
1781599354888,1870.725555518831,3085.29878129937,-1499.1428483388536,6,A
1781599354909,-561.115890531201,2221.7827544123093,-1917.8873939498449,6,A
1781599354931,-1534.6537346665514,-2196.2062203587,-3315.0446759403644,6,A
1781599354953,-1646.8309348138346,-13429.94727711735,-5324.213216900795,6,A
1781599354974,1233.71931182533,-33005.65478896635,4290.805772705433,6,A
1781599354996,5336.1997743545435,-33005.65478896635,17489.311739174955,6,A
1781599355018,7936.307020625501,-33005.65478896635,11957.052069275893,6,A
1781599355039,4138.307529924627,-26860.633760421217,5184.664321990434,6,A
1781599355061,1045.4218687209618,-21462.65450397373,8293.037295179718,6,A
1781599355083,-272.66023300961564,-17920.230616930065,11212.169944871726,6,A
1781599355104,-749.4133336355692,-14542.477228036958,8844.652706224966,6,A
1781599355126,-460.95767611398384,-11578.408261326953,6247.631245464489,6,A
1781599355147,-68.33747559849267,-10036.128473770528,5732.253343174038,6,A
1781599355168,-364.8057902734554,-9236.874104698318,5736.2797330356825,6,A
1781599355190,-216.57163293597404,-9084.252667388047,5595.356087878137,6,A
1781599355211,973.3079543405654,-10996.036987379866,5261.165729361673,6,A
1781599355233,1534.1939550769814,-12927.903075438826,5224.928220606876,6,A
1781599355255,2115.1115986968407,-13598.634128881333,5945.652005841178,6,A
1781599355277,1153.5927402915563,-12281.270143676888,6783.1410970631605,6,A
1781599355298,857.1244256165936,-11843.487599813214,6698.586909968633,6,A
1781599355320,-1518.6284203597968,-13084.540866362524,3340.5777653574137,6,A
1781599355341,-2267.8118642005807,-15389.927840470305,4818.262844580816,6,A
1781599355362,-2604.3434646424303,-16337.787293239358,9118.447216816769,6,A
1781599355384,-1029.8563340037772,-17285.64674600841,8880.890214979763,6,A
1781599355406,1137.5674259848015,-16626.964753406188,4681.365589284915,6,A
1781599355427,2736.092528083587,-15389.927840470305,1701.837091668245,6,A
1781599355449,4058.180958390853,-15321.649829042028,1307.2508852271183,6,A
1781599355471,3477.2633147709935,-14189.038110055277,888.5063396161269,6,A
1781599355493,548.6371252115648,-15683.121654250564,-2179.602734956715,6,A
1781599355514,1914.7951698624065,-20358.157260280976,179.8617239667566,6,A
1781599355535,1814.6369554451894,-20599.138477086668,1287.1189359188975,6,A
1781599355558,2700.035570893389,-19675.377145998184,-2127.2596667553407,6,A
1781599355579,3401.1430718139086,-19731.60609658618,-5219.527080498047,6,A
1781599355600,5268.092188550836,-18695.386864321707,-6805.924685985842,6,A
1781599355622,6718.38313331214,-16884.01138466559,-7369.619266616022,6,A
1781599355644,6950.750190760084,-14558.542642490671,-8186.976408529785,6,A
1781599355666,6706.364147582074,-12731.101748380845,-10188.092169766926,6,A
1781599355687,7034.883090870546,-14662.967836439804,-8758.723768883254,6,A
1781599355709,6021.281960968308,-14988.292479127487,-5473.189641781629,6,A
1781599355730,5207.997259900506,-15333.698889882311,-5231.606250082979,6,A
1781599355751,5015.693488219449,-14185.021756441849,-7003.217789206405,6,A
1781599355773,3216.851957286229,-13626.748604175331,-6407.312089683071,6,A
1781599355795,3004.516542721729,-14671.00054366666,-6846.188584602283,6,A
1781599355817,3617.4848149550976,-16964.338456934154,-4655.832499867866,6,A
1781599355838,3509.313943384503,-19325.95438162993,-2078.942988415611,6,A
1781599355860,1458.0737121198963,-20892.332290866925,-347.5953479086269,6,A
1781599355881,688.8586253956688,-18864.073716085688,288.57425023114865,6,A
1781599355902,608.7320538618951,-17305.728514075552,-315.3842290154737,6,A
1781599355924,-701.3373907153049,-16357.869061306501,-605.2842990538525,6,A
1781599355947,-2860.7484935505063,-16020.495357778533,-202.64531288943752,6,A
1781599355968,-3137.1851653420254,-17112.943540630997,-416.04397555657744,6,A
1781599355989,-2544.2485359921,-17864.00166634207,-468.38704375795135,6,A
1781599356011,-1570.7106918567497,-19084.97316482424,-283.1731101223205,6,A
1781599356032,-440.9260332305404,-19466.526758099917,-452.28148431137475,6,A
1781599356054,432.45359648759296,-18651.206974573994,-1104.5566418977269,6,A
1781599356077,372.35866783726266,-19145.21846902566,-1865.544325748471,6,A
1781599356098,-420.894390347097,-17048.68188281615,-1837.359596716962,6,A
1781599356120,200.08653903964924,-15297.551707361457,-2976.8279275622563,6,A
1781599356141,1381.9534691628114,-14249.2834142567,-3774.0531201677977,6,A
1781599356163,1405.9914406229434,-14024.367611904721,-2715.1125865553863,6,A
1781599356184,172.04223900282844,-14502.313691902677,-770.3662833812625,6,A
1781599356206,-785.4702908257673,-14976.243418287202,18.806129500990664,6,A
1781599356227,-1029.8563340037772,-15193.126513412324,2.7005700544140683,6,A
1781599356249,-1101.9702483841734,-16614.9156925659,171.80894424346832,6,A
1781599356271,-2143.615678323232,-17602.938681469237,-49.642498146959866,6,A
1781599356293,-2127.590364016477,-18245.555259617748,-758.2871137963301,6,A
1781599356314,-52.31216129173794,-19486.60852616706,-887.1315893689429,6,A
1781599356335,2047.004012893133,-19932.423777257587,-162.38141427299604,6,A
