timestamp,ax,ay,az,label,subject_id
1781611456773,-2488.1599359184584,12367.091981931919,1097.8786124216226,4,A
1781611456773,-2351.9447643110434,10142.0320800927,-3025.144605901986,4,A
1781611456775,-1458.5334917094665,8487.294391360287,-4148.507377300703,4,A
1781611456776,-2159.640992629986,7262.306539264689,-6741.502448199535,4,A
1781611456777,-1274.2423771817869,8672.046657577983,-4265.272683288384,4,A
1781611456778,-1029.8563340037772,9382.941247154773,-1185.0844391306098,4,A
1781611456778,-1730.963834924297,11234.48026294517,4085.459889761581,4,A
1781611456779,-4675.615338790481,21215.118992314223,13720.61082867603,4,A
1781611456779,-6839.032770202371,27332.025545565357,19337.42468566962,4,A
1781611456779,-4170.817938127706,26572.93471262743,21559.991889297187,4,A
1781611456781,-673.2930906784842,25295.734263557264,19534.717788890182,4,A
1781611456782,-2203.710606973562,19990.131140218626,12206.688240697831,4,A
1781611456783,-1310.299334371985,13905.355415874916,3614.3722759492157,4,A
1781611456784,-20.26153267822846,9688.184121775315,-2441.3180759635843,4,A
1781611456784,228.13083907647,6113.629405824226,-10441.754731050507,4,A
1781611456785,624.7573681686498,5575.438021624848,-13018.644242502762,4,A
1781611456786,-1486.5777917462872,7808.530630690922,-10083.406033364177,4,A
1781611456787,-1574.7170204334384,9382.941247154773,-6121.438409506336,4,A
1781611456788,-1734.9701635009858,10571.781916729517,8796.336027885236,4,A
1781611456789,-9579.361516657431,32797.278725037766,29991.252259580036,4,A
1781611456789,-15404.563267162779,32797.278725037766,25497.801173985164,4,A
1781611456791,-3189.2674368389785,22753.38242625722,15222.454247069298,4,A
1781611456791,300.24475345686636,12158.241594033652,6457.003518269985,4,A
1781611456792,2647.953299396436,7149.848638088699,-1297.823355256646,4,A
1781611456793,2563.8203992859735,5675.846861960553,-6616.684362488567,4,A
1781611456794,2291.3900560711427,5527.24177826371,-8843.277955977781,4,A
1781611456794,1486.1180121567172,6402.806865991056,-10953.106243479315,4,A
1781611456795,1301.8268976290376,7230.175710357263,-9036.5446693367,4,A
1781611456796,-56.318489868426624,7274.355600104973,1089.8258326983344,4,A
1781611456797,-6033.760726287945,21154.873688112802,18721.387036838063,4,A
1781611456797,-14759.5443663159,32797.278725037766,27591.523902040124,4,A
1781611456798,-10408.671532031987,31826.325238991503,23122.231155615118,4,A
1781611456799,-2303.868821390779,22528.466623905242,15914.993303272091,4,A
1781611456800,-64.331147021804,14286.909009150593,8111.84975140573,4,A
1781611456800,1594.2888837273117,9101.7964942148,280.52147050786033,4,A
1781611456801,921.2256828436125,4454.875363478383,-10324.989425062828,4,A
1781611456801,1558.2319265371134,2820.2194428131097,-15945.829671918058,4,A
1781611456802,1385.9597977395001,6663.869850863888,-13759.499977045287,4,A
1781611456803,11.789095935281024,6362.643329856774,-8710.407090543524,4,A
1781611456803,-1722.9511777709197,6575.510071368468,2933.9123893313545,4,A
1781611456804,-10412.677860608677,27818.00433279017,25980.967957382465,4,A
1781611456805,-17379.6832554703,32797.278725037766,31988.341630955532,4,A
1781611456805,-6666.760641404757,27757.759028588745,23653.714617352147,4,A
1781611456807,376.36499641395136,17640.564276363133,15564.697385309051,4,A
1781611456807,1590.282555150623,12949.463255879005,8486.304008538636,4,A
1781611456808,2075.0483129299537,8563.605110015422,940.8494078175007,4,A
1781611456809,1077.4724973344712,6173.874710025649,-8033.973593787307,4,A
1781611456809,1686.4344409911514,5519.209071036854,-12990.459513471254,4,A
1781611456811,496.5548537146119,6499.199352713332,-11396.00912826017,4,A
1781611456812,-1226.1664342615227,8639.915828670557,-11331.586890473864,4,A
1781611456812,-1101.9702483841734,7756.318033716356,-8211.134747699649,4,A
1781611456813,-1250.204405721655,9772.527547657308,413.39233594211726,4,A
1781611456814,-6618.684698484493,22765.431487097507,16047.864168706348,4,A
1781611456814,-12151.424462891566,32797.278725037766,21616.361347360205,4,A
1781611456815,-5889.532897527152,26131.13581515033,17887.924335477725,4,A
1781611456816,572.6750966716969,18901.699310979588,13402.526029606142,4,A
1781611456816,845.1054398865275,16086.235427966423,8470.19844909206,4,A
1781611456817,504.5675108679893,12885.201598064155,2619.853980123111,4,A
1781611456818,-1490.5841203229759,12294.797616890211,276.4950806462162,4,A
1781611456818,-1594.7486633168817,11138.087776222892,71.1491977023646,4,A
1781611456818,-2516.2042359552793,13704.537735203507,2128.6344170025245,4,A
1781611456819,-3201.2864225690446,16387.461948973538,3783.48065013827,4,A
1781611456820,-2576.29916460561,15166.490450491367,4769.946166241087,4,A
1781611456820,-2379.989064347864,16130.415317714132,5603.408867601425,4,A
1781611456822,-2239.76756416376,17082.291124096617,6122.81315975352,4,A
1781611456822,-4010.5647950601588,19917.83677517692,8301.090074903006,4,A
1781611456823,-2828.6978649369967,18479.982181569627,12142.266002911523,4,A
1781611456824,-3802.235709072347,20833.565399038547,13007.939823165016,4,A
1781611456824,-2476.1409501883923,17596.384386615424,9565.376491459268,4,A
1781611456825,-168.4956900157098,11101.940593702038,2784.935964450521,4,A
1781611456825,933.2446685736786,9053.600250853662,-1483.0372888922768,4,A
1781611456826,284.2194391501116,8997.371300265666,-3995.5045625582256,4,A
1781611456827,-116.4134185187569,8913.027874383675,-6632.789921935143,4,A
1781611456827,-965.7550767767582,9077.69837253423,-6777.739956954333,4,A
1781611456828,-1486.5777917462872,9242.368870684786,-2018.5471404909488,4,A
1781611456829,-4046.621752250357,17110.405599390615,10459.23504074427,4,A
1781611456830,-8433.551543724467,28199.55792606585,22945.070001702774,4,A
1781611456830,-8153.108543356259,30392.48699899764,21580.12383860541,4,A
1781611456831,-1863.1726779550236,23468.293369447438,16394.133696807745,4,A
1781611456831,969.3016257638768,18082.363173840236,11143.721317223775,4,A
1781611456832,2868.3013711143135,12475.53352949448,5981.889514595975,4,A
1781611456832,2920.3836426112666,10226.375505974693,779.7938133517348,4,A
1781611456833,592.7067395551404,7206.077588676694,-7836.680490566744,4,A
1781611456834,-937.7107767399374,8290.493064302305,-9257.996111727127,4,A
1781611456834,-1005.818362543645,10519.569319754952,-6918.6636021118775,4,A
1781611456835,-1382.4132487523814,10704.321585972648,-4973.917298937754,4,A
1781611456835,-1706.9258634641649,11254.56203101231,389.23399677225234,4,A
1781611456835,-5124.324139379613,23062.64165449119,15584.82933461727,4,A
1781611456837,-8445.570529454533,32797.278725037766,23649.6882274905,4,A
1781611456837,-3433.6534800169884,27822.020686403597,17139.015821211913,4,A
1781611456837,1630.3458409175098,17311.223280062022,8985.576351382511,4,A
1781611456838,3569.4088720348336,10411.12777219239,2136.687196725813,4,A
1781611456838,2579.8457135927283,7595.663889179228,-4684.017228899375,4,A
1781611456839,496.5548537146119,5611.585204145702,-10333.042204786116,4,A
1781611456840,-1622.7929633537026,7165.914052542412,-11408.088297845103,4,A
1781611456840,-1474.558806016221,6844.6057634681565,-10357.20054395598,4,A
1781611456857,-645.2487906416634,7675.990961447792,-6914.6372122502335,4,A
1781611456879,-2219.7359212803167,10728.419707653216,1311.2772750887625,4,A
1781611456901,-8425.538886571088,28645.373177156376,17247.728347476306,4,A
1781611456922,-10773.247432510658,32797.278725037766,23464.47429385487,4,A
1781611456943,-3453.6851229004315,30404.536059837923,19957.488724362818,4,A
1781611456965,-833.5462337460316,24251.482324065935,14614.469377961032,4,A
1781611456987,272.20045342004556,17632.531569136278,9275.47642142089,4,A
1781611457008,-613.1981620281539,13242.657069659264,2772.8567948655887,4,A
1781611457030,-493.0083047274933,7756.318033716356,-5823.485559744669,4,A
1781611457052,-416.8880617704083,3980.945637093857,-13320.623482126073,4,A
1781611457072,600.7193967085177,3659.6373480196016,-14395.669575185062,4,A
1781611457094,837.0927827331502,5258.146086164022,-14101.743115285039,4,A
1781611457116,-72.34380417518136,6137.727527504795,-12326.105186299968,4,A
1781611457137,660.814325358848,6696.000679771313,-1938.0193432580656,4,A
1781611457159,-2928.8560793542138,24681.23216070275,23540.97570122611,4,A
1781611457181,-14138.563436929155,32797.278725037766,32651.689360661407,4,A
1781611457202,-6622.691027061182,32797.278725037766,22945.070001702774,4,A
1781611457223,492.54852513792326,20359.635672654018,14139.355374287023,4,A
1781611457245,3845.8455438263527,12230.53595907536,5849.018649161719,4,A
1781611457267,2968.4595855315306,5872.648189018534,-5996.620323795368,4,A
1781611457287,1253.7509547087734,3418.65613121391,-14609.068237852201,4,A
1781611457310,1085.4851544878486,884.3370011407219,-20411.09602848142,4,A
1781611457331,1866.7192269421423,-107.70234137604119,-18454.270555722363,4,A
1781611457353,2075.0483129299537,2269.9789977734476,-11057.792379882063,4,A
1781611457375,-360.7994616967667,10109.901251185276,8011.190004864627,4,A
1781611457396,-14022.379908205183,32797.278725037766,32651.689360661407,4,A
1781611457418,-16145.734053850185,32797.278725037766,32651.689360661407,4,A
1781611457439,-4567.444467219886,32797.278725037766,23915.429958359015,4,A
1781611457461,131.9789532359416,16544.09973989724,11341.014420444339,4,A
1781611457483,2924.3899711879553,5844.533713724537,534.1840317914417,4,A
1781611457504,4671.149230624222,-27.37526910747738,-8287.636155070888,4,A
1781611457526,4639.098602010712,-3509.5538519497186,-16654.474287567427,4,A
1781611457549,4891.4973023421,-6437.475636138869,-22830.956335329553,4,A
1781611457570,3525.339257691258,-4369.053525223351,-20648.653030318426,4,A
1781611457591,2736.092528083587,-794.4988092722617,-11102.082668360148,4,A
1781611457613,-1775.0334492678726,11788.73706159826,7197.859252812508,4,A
1781611457635,-23088.701477251678,32797.278725037766,25831.99153250163,4,A
1781611457656,-23541.416606417497,32797.278725037766,24289.884215491922,4,A
1781611457678,-10352.582931958346,32797.278725037766,19091.814904109324,4,A
1781611457700,-4527.381181452999,19929.8858360172,8985.576351382511,4,A
1781611457721,2543.78875640253,6037.3186871690905,1347.5147838435598,4,A
1781611457742,3521.332929114569,2984.8899409636656,-3423.7572022047566,4,A
1781611457764,5476.421274538648,-2461.2855588449606,-10546.440867453255,4,A
1781611457785,5676.737703373082,-5461.501708075819,-17109.45634193322,4,A
1781611457807,3946.00375824357,-3521.6029127900033,-16525.629811994815,4,A
1781611457828,1930.8204841691613,575.0777729067512,-9797.532353187444,4,A
1781611457849,-7668.342785576929,17833.34924980769,9488.87508408803,4,A
1781611457872,-26201.618781338784,32797.278725037766,23218.864512294578,4,A
1781611457894,-18785.904585888027,32797.278725037766,22490.087947336986,4,A
1781611457915,-6750.893541515219,32797.278725037766,18218.088304132543,4,A
1781611457938,-1206.1347913780792,16226.80780443641,10378.707243511386,4,A
1781611457958,3120.700071445701,4021.109173228139,1850.8135165490785,4,A
1781611457981,4915.535273802232,-1545.5569349833333,-9145.25719560109,4,A
1781611458002,6357.813561410158,-4549.78943782762,-14935.205816645377,4,A
1781611458023,5845.003503594006,-4268.644684887647,-17612.755074638735,4,A
1781611458045,3621.4911435317863,-284.4219003668816,-15857.249094961888,4,A
1781611458067,2527.763442095775,1245.808826349259,-7595.097098868095,4,A
1781611458088,-11338.139761823762,25854.007415823784,16124.365576077587,4,A
1781611458110,-29606.99807152417,32797.278725037766,27821.02812415384,4,A
1781611458132,-17183.373155212554,32797.278725037766,23146.389494784984,4,A
1781611458153,-6258.115126582511,29934.622687066825,17859.739606446215,4,A
1781611458174,-108.40076136537954,13580.030773187233,9424.452846301723,4,A
1781611458195,4434.77584459959,3037.102537938232,-573.0731801606993,4,A
1781611458218,7259.237491165112,-4272.6610385010745,-10783.99786929026,4,A
1781611458239,5288.123831434279,-6666.407792104276,-19283.70686722106,4,A
1781611458261,4150.326515654693,-4674.296399843894,-20399.016858896488,4,A
1781611458283,3333.035486010201,-2513.4981558195273,-16529.656201856462,4,A
1781611458304,1998.9280699728688,314.0147880339188,-7107.903925609153,4,A
1781611458326,-14254.746965653127,29790.03395698341,16704.165716154344,4,A
1781611458347,-26910.738939412684,32797.278725037766,27567.365562870258,4,A
1781611458369,-12027.228277014217,32797.278725037766,24144.93418047273,4,A
1781611458391,-3822.2673519557907,30938.711090423873,18109.375777868154,4,A
1781611458412,-1474.558806016221,13122.166461256418,6078.522871275435,4,A
1781611458434,2151.168555887039,3852.4223214641547,-1265.612236363493,4,A
1781611458456,127.97262465925289,5655.765093893412,-5255.764589252844,4,A
1781611458477,2543.78875640253,820.0753433258708,-9700.898996507984,4,A
1781611458499,3012.5291998751063,2097.2757923960353,-11891.255081242402,4,A
1781611458521,4110.263229887806,1482.7736895415223,-14315.141777952178,4,A
1781611458542,2479.687499175511,5169.786306668601,-8690.275141235303,4,A
1781611458564,-2740.5586362498457,12563.8933089899,4862.553133058902,4,A
1781611458586,-16462.234011408593,32797.278725037766,26701.691742616767,4,A
1781611458607,-16273.936568304223,32797.278725037766,28247.82544948812,4,A
1781611458628,-5593.064582852189,30396.503352611067,18902.57458061205,4,A
1781611458651,-1462.5398202861552,16507.952557376386,9790.85432371134,4,A
1781611458672,1994.92174139618,5675.846861960553,-1438.7470004141912,4,A
1781611458694,5853.016160747384,-4614.051095642471,-14862.730799135783,4,A
1781611458715,5336.1997743545435,-6288.870552442027,-21421.7198837541,4,A
1781611458737,3725.655686525692,-4120.039601190803,-20572.151622947185,4,A
1781611458758,1301.8268976290376,105.16440013565291,-13944.713910680917,4,A
1781611458779,-741.4006764821918,5113.557356080607,-1470.9581193073445,4,A
1781611458802,-10629.019603749866,32123.53540638519,24281.831435768632,4,A
1781611458824,-17624.06929864831,32797.278725037766,32651.689360661407,4,A
1781611458845,-10392.646217725234,32797.278725037766,25280.376121456382,4,A
1781611458866,-4459.273595649292,26958.504659516537,13764.901117154115,4,A
1781611458888,-1198.122134224702,14491.743043435432,5128.2948639274155,4,A
1781611458909,-104.39443278869085,5675.846861960553,-4035.768461174667,4,A
1781611458932,2543.78875640253,-1071.6272085988069,-12169.075981695847,4,A
1781611458953,3473.256986194305,-3252.507220690314,-16122.990825830402,4,A
1781611458974,3561.396214881456,-3698.3224717808434,-17926.81348384698,4,A
1781611458996,1538.20028365367,-2417.105669097251,-14951.311376091953,4,A
1781611459018,-1150.0461913044376,3699.8008841538835,-2352.737499007413,4,A
1781611459039,-8481.627486644731,22677.071707602085,19107.9204635559,4,A
1781611459061,-13529.601493272474,32797.278725037766,32651.689360661407,4,A
1781611459083,-9230.810930485515,32797.278725037766,31899.761053999362,4,A
1781611459104,-4703.659638827301,31336.330098153263,19438.084432210722,4,A
1781611459126,-2456.109307304949,18134.5757708148,9400.294507131859,4,A
1781611459146,1133.5610974081128,7491.238695230095,-649.574587531938,4,A
1781611459169,2936.408956918021,-1653.9984825458946,-13598.44438257952,4,A
1781611459191,2675.9975994332567,-1907.0287601918706,-17202.063308751032,4,A
1781611459212,3877.8961724398623,-5618.139498999519,-21550.564359326716,4,A
1781611459234,3473.256986194305,-5039.784578665859,-17592.623125330516,4,A
1781611459255,2992.497556991663,-2915.1335171623464,-8029.947203925663,4,A
1781611459276,-2440.0839929981944,12439.386346973626,8639.306823281115,4,A
1781611459299,-13773.987536450484,32797.278725037766,28650.464435652535,4,A
1781611459321,-15492.70249584993,32797.278725037766,32651.689360661407,4,A
1781611459343,-4463.279924225981,32797.278725037766,26850.6681674976,4,A
1781611459363,-2243.773892740449,23271.49204238946,12130.186833326592,4,A
1781611459385,91.91566746905472,10551.700148662376,3364.7361045272783,4,A
1781611459407,-1562.6980347033723,7085.586980273848,-3286.859946908856,4,A
1781611459428,1674.4154552610853,1583.1825298772271,-10192.11855962857,4,A
1781611459451,3837.8328866729753,-3778.6495440494073,-17016.849375115402,4,A
1781611459472,4166.351829961448,-6100.101932610902,-20866.07808284721,4,A
1781611459494,1898.7698555556517,-1706.211079520461,-16078.700537352315,4,A
1781611459515,-681.3057478318615,2041.0468418080407,-7015.296958791338,4,A
1781611459537,-9082.576773148034,20002.18020105891,14864.105549382968,4,A
1781611459558,-17447.790841274007,32797.278725037766,32651.689360661407,4,A
1781611459581,-10681.101875246819,32797.278725037766,31791.04852773497,4,A
1781611459602,-4287.001466851678,32797.278725037766,19909.172046023086,4,A
1781611459623,468.5105536777911,16748.933774182075,9311.713930175687,4,A
1781611459645,2571.833056439351,7639.843778926938,2503.0886741354307,4,A
1781611459667,4410.737873139457,1366.2994347521048,-5678.53552472548,4,A
1781611459688,5199.9846027471285,-3830.862141023974,-14709.727984393305,4,A
1781611459710,1502.1433264634718,-5381.174635807255,-20785.550285614325,4,A
1781611459731,-0.22988979478503244,-1537.524227756477,-15861.27548482353,4,A
1781611459752,-1450.520834556089,1848.2618683634876,-10373.306103402556,4,A
1781611459774,-4038.6090950969797,7451.075159095813,2684.276217909417,4,A
1781611459796,-14110.519136892333,32797.278725037766,28372.643535199088,4,A
1781611459818,-24579.055707779866,32797.278725037766,32651.689360661407,4,A
1781611459839,-621.2108191815312,32797.278725037766,22884.674153778113,4,A
1781611459861,-601.1791762980878,20809.467277357977,14803.709701458307,4,A
1781611459882,2395.5545990650485,11009.56446059319,4773.972556102731,4,A
1781611459904,580.6877538250743,4033.158234068423,-10167.960220458704,4,A
1781611459926,-1109.9829055375508,-686.0572617097006,-18434.138606414144,4,A
1781611459947,1538.20028365367,-4818.885129927308,-19356.181884730653,4,A
1781611459969,1438.042069236453,-2039.5684294350008,-17536.253667267498,4,A
1781611459991,2311.421698954586,1181.547168534408,-13248.148464616479,4,A
1781611460012,1858.706569788765,3711.849944994168,-3331.1502353869414,4,A
1781611460034,-3037.0269509248083,17142.536428298037,19836.697028513492,4,A
1781611460056,-16313.99985407111,32797.278725037766,32651.689360661407,4,A
1781611460078,-13890.171065174456,32797.278725037766,27732.44754719767,4,A
1781611460099,-4787.792538937764,31312.231976472696,19442.110822072365,4,A
1781611460120,-1795.0650921513159,13821.011989992923,8619.174873972894,4,A
1781611460142,1021.3838972608297,808.0262824855863,-6862.294144048859,4,A
1781611460163,1297.820569052349,-5272.733088244694,-19879.612566744392,4,A
1781611460186,3629.5038006851637,-7337.138845546784,-22182.707567604844,4,A
1781611460206,5652.69973191295,-8943.68029091806,-21602.907427528087,4,A
1781611460229,2832.244413924115,-649.9100791888469,-7756.152693333861,4,A
1781611460251,-4863.912781894849,12808.89087940902,9496.927863811317,4,A
1781611460272,-17423.752869813874,32797.278725037766,32651.689360661407,4,A
1781611460293,-23938.043135509677,32797.278725037766,32651.689360661407,4,A
1781611460315,-6322.21638380953,29970.76986958768,17505.41729862153,4,A
1781611460336,-977.7740625068242,8852.782570182251,5422.221323827439,4,A
1781611460358,5039.73145967958,-4698.394521524463,-5948.303645455638,4,A
1781611460379,5564.560503225799,-7196.566469076797,-19424.630512378604,4,A
1781611460401,6025.2882895449975,-10779.153892254744,-25222.63191314618,4,A
1781611460423,5812.952874980497,-10449.812895953632,-23563.759290148788,4,A
1781611460444,552.6434537882535,-4505.6095480799095,-10932.974294171094,4,A
1781611460465,-6742.880884361842,9431.137490515912,7874.292749568725,4,A
1781611460488,-24246.530435914705,32797.278725037766,32651.689360661407,4,A
1781611460509,-25833.036552283425,32797.278725037766,32651.689360661407,4,A
1781611460531,-7367.868142325277,32797.278725037766,21350.61961649169,4,A
1781611460553,-2548.254864568789,16540.08338628381,11224.249114456657,4,A
1781611460574,-404.86907604034224,7061.488858593279,1182.4327995161498,4,A
1781611460596,2872.307699691002,872.2879403004373,-7675.624896100978,4,A
1781611460619,5708.788331986591,-6461.5737578194385,-16179.36028389342,4,A
1781611460639,8028.45257788934,-9590.313222679999,-19601.791666290945,4,A
1781611460662,5532.509874612289,-4947.408445557011,-15986.0935705345,4,A
1781611460683,-232.59694724272876,3113.413256593368,-4341.774090659623,4,A
1781611460705,-16049.582168009656,29416.51307093459,16869.247700481756,4,A
1781611460727,-31510.004145451294,32797.278725037766,32651.689360661407,4,A
1781611460748,-20320.328430759797,32797.278725037766,28062.611515852488,4,A
1781611460769,-7439.982056705673,21672.983304245037,14151.434543871954,4,A
1781611460791,-937.7107767399374,7471.156927162954,2841.3054225135393,4,A
1781611460813,5212.003588477194,-4107.990540350519,-7260.906740351631,4,A
1781611460834,9707.1042515219,-9264.988579992316,-19722.58336214027,4,A
1781611460856,9807.262465939117,-14269.365182323842,-28584.667447619042,4,A
1781611460878,7667.883005987358,-11518.16295712553,-23060.46055744327,4,A
1781611460899,256.1751391132908,-2356.860364895828,-6870.346923772148,4,A
1781611460921,-12147.418134314878,21676.999657858465,16184.76142400225,4,A
1781611460943,-25284.169537277077,32797.278725037766,29741.616088158098,4,A
1781611460965,-20516.63853101754,32797.278725037766,32651.689360661407,4,A
1781611460986,-12143.41180573819,32797.278725037766,23722.163245000098,4,A
1781611461007,-4835.868481858028,15632.387469649038,8752.04573940715,4,A
1781611461029,3052.592485641993,3362.4271806259153,-1092.4774723127944,4,A
1781611461050,6425.921147213866,-5047.8172858927155,-12809.271969697267,4,A
1781611461072,7796.0855204413965,-10349.404055617926,-23459.07315374604,4,A
1781611461094,7856.180449091727,-14683.049604506945,-26386.258583161336,4,A
1781611461115,3661.5544292986733,-9481.871675117438,-14564.777949374116,4,A
1781611461136,-9923.905774252657,18022.117869638812,9275.47642142089,4,A
1781611461158,-26261.713709989115,32797.278725037766,28155.218482670305,4,A
1781611461181,-19362.8159009312,32797.278725037766,32560.088991309003,4,A
1781611461202,-7828.595928644476,32797.278725037766,21986.78921463147,4,A
1781611461223,-12.248875524851087,15122.310560743657,9553.297321874335,4,A
1781611461245,2447.6368705620016,3599.3920438181785,2040.0538400463533,4,A
1781611461266,5203.990931323817,-4790.770654633311,-9181.49470435589,4,A
1781611461288,5760.870603483544,-9345.315652260879,-19038.097085660764,4,A
1781611461310,5804.940217827119,-13245.195010899652,-24067.058022854308,4,A
1781611461332,4350.642944489127,-9148.514325202897,-19251.495748327907,4,A
1781611461353,-545.0905762244462,-923.0221249019638,-4535.040804018542,4,A
1781611461375,-16021.537867972836,32797.278725037766,19329.37190594633,4,A
1781611461396,-26738.466810615068,32797.278725037766,30587.15795910337,4,A
1781611461417,-17880.474327556385,32797.278725037766,26878.852896529108,4,A
1781611461439,-5873.5075832203975,29617.330751605998,16426.344815700897,4,A
1781611461461,-853.577876629475,10358.915175217824,6223.472906294624,4,A
1781611461483,4731.244159274552,836.1407577795836,-3584.8127966705224,4,A
1781611461504,6678.319847545253,-3091.853076153187,-11363.798009367018,4,A
1781611461526,7744.003248944443,-9554.166040159145,-18418.033046967565,4,A
1781611461548,7908.262720588679,-11799.307710065505,-19863.507007297816,4,A
1781611461569,4294.5543444154855,-7730.741499662747,-12700.559443432874,4,A
1781611461591,-4407.191324152339,6438.95404851191,373.12843732567575,4,A
1781611461613,-17992.65152770367,32797.278725037766,14388.99154570896,4,A
1781611461634,-27383.485711461948,32797.278725037766,20637.94861098068,4,A
1781611461655,-21109.575160367465,32797.278725037766,18540.199493064076,4,A
1781611461677,-11554.481504964951,32797.278725037766,13281.734333756818,4,A
1781611461698,-4066.6533951338006,15853.286918387588,7117.331455579625,4,A
1781611461720,-20.26153267822846,5089.4592344000375,-3005.0126565937653,4,A
1781611461742,1405.9914406229434,56.968156774514625,-10711.522851780664,4,A
1781611461763,5624.655431876129,-6011.742153115481,-15841.143535515312,4,A
1781611461785,6245.636361262875,-7164.435640169372,-18148.264926237407,4,A
1781611461806,4146.320187078004,-3658.1589356465615,-14311.115388090535,4,A
1781611461827,1393.9724548928773,1812.114685842634,-4204.8768353637215,4,A
1781611461849,-10112.203217357026,20452.011805762868,14207.804001934972,4,A
1781611461871,-29542.89681429715,32797.278725037766,29157.789558219698,4,A
1781611461893,-21966.929475778845,32797.278725037766,22997.41306990415,4,A
1781611461915,-8221.216129159966,30822.236835634456,16748.45600463243,4,A
1781611461936,-1158.058848457815,14551.988347636854,9428.479236163368,4,A
1781611461957,3064.611471372059,2322.1915947480143,-2195.7082944032913,4,A
1781611461979,4542.946716170184,-2168.091745064703,-12209.33988031229,4,A
1781611462001,5183.959288440374,-5802.891765217215,-21373.40320541437,4,A
1781611462023,5079.7947454464675,-5594.041377318949,-20552.019673638966,4,A
1781611462044,2063.029327199888,-1653.9984825458946,-11484.589705216342,4,A
1781611462065,-2211.7232641269393,6113.629405824226,1814.5760077942812,4,A
1781611462087,-17267.506055323018,32797.278725037766,27015.75015182501,4,A
1781611462109,-26954.80855375626,32797.278725037766,32651.689360661407,4,A
1781611462131,-10184.317131737422,32797.278725037766,26617.13755552224,4,A
1781611462153,-1486.5777917462872,20572.502414165712,16076.048897737857,4,A
1781611462173,1165.6117260216224,6997.227200778428,5285.324068531538,4,A
1781611462195,4534.934059016807,-935.0711857422484,-8037.9999836489515,4,A
1781611462217,5268.092188550836,-4875.114080515304,-19605.81805615259,4,A
1781611462238,4338.623958759061,-6413.3775144583005,-21912.939446874687,4,A
1781611462259,1117.5357831013582,-1995.3885396872906,-19311.891596252568,4,A
1781611462282,-1722.9511777709197,1956.7034159260488,-13795.737485800084,4,A
1781611462303,-1462.5398202861552,4426.760888184386,-8182.950018668141,4,A
1781611462325,-8369.450286497447,18761.1269345096,15625.093233233712,4,A
1781611462346,-18253.062885188432,32797.278725037766,32651.689360661407,4,A
1781611462368,-15901.348010672176,32797.278725037766,29443.66323839643,4,A
1781611462389,-3349.5205799065257,31625.507558320092,18950.89125895178,4,A
1781611462410,1133.5610974081128,12889.217951677583,9541.218152289404,4,A
1781611462433,3529.3455862679466,1864.3272828172003,-2457.423635410161,4,A
1781611462454,5660.712389066327,-5232.569552110413,-17443.64670044968,4,A
1781611462477,4831.402373691769,-9650.558526881421,-28258.529868825866,4,A
1781611462498,5207.997259900506,-9955.801401501963,-22170.62839801991,4,A
1781611462519,-921.6854624331826,346.1456169413443,-8823.14600666956,4,A
1781611462541,-7091.431470533757,13535.850883439522,9231.186132942805,4,A
1781611462563,-16089.645453776544,32797.278725037766,32651.689360661407,4,A
1781611462585,-15504.721481579996,32797.278725037766,31319.960913922605,4,A
1781611462606,1726.4977267580382,27805.955271949886,18805.94122393259,4,A
1781611462628,3637.516457838541,11752.589879077406,7536.076001190617,4,A
1781611462649,5191.971945593751,-1645.9657753190381,-6660.974650966652,4,A
1781611462670,861.1307541932823,-4794.78700824674,-21385.482374999305,4,A
1781611462692,2832.244413924115,-7521.891111764481,-22319.604822900747,4,A
1781611462714,2295.3963846478314,-6690.505913784846,-17890.575975092182,4,A
1781611462736,-1622.7929633537026,1510.8881648355195,-10675.285343025867,4,A
1781611462757,-3409.615508556856,5699.944983641122,-1334.0608640114433,4,A
1781611462779,-11069.71574718562,32797.278725037766,24905.921864323474,4,A
1781611462800,-18557.543857016775,32797.278725037766,31303.85535447603,4,A
1781611462822,-7808.564285761033,32797.278725037766,22445.7976588589,4,A
1781611462843,332.2953820703758,22873.873034660068,13656.188590889724,4,A
1781611462865,1357.9154977026792,11250.54567739888,5321.561577286335,4,A
1781611462886,4426.763187446212,1494.8227503818068,-3818.3434086458833,4,A
1781611462909,4514.902416133363,-3087.8367225397587,-15253.290615715265,4,A
1781611462929,3441.2063575807956,-5662.319388747229,-22279.340924284304,4,A
1781611462952,484.53586798454586,-3075.787661699474,-20910.368371325294,4,A
1781611462973,-60.32481844511531,-653.9264328022751,-16445.102014761935,4,A
1781611462995,748.9535540459991,-1822.6853343098785,-10800.103428736837,4,A
1781611463017,-4399.1786669989615,12628.15496680475,15053.345872880243,4,A
1781611463038,-20893.233417226278,32797.278725037766,32651.689360661407,4,A
1781611463059,-17680.15789872195,32797.278725037766,29946.96197110195,4,A
1781611463081,845.1054398865275,25456.388408094394,17340.33531429412,4,A
1781611463103,2760.130499543719,11166.20225151689,8184.324768915325,4,A
1781611463124,4318.592315875618,948.5986589555729,-4043.8212408979557,4,A
1781611463146,2996.5038855683515,-4055.7779433759524,-18273.083011948376,4,A
1781611463168,3958.022743973636,-7911.477412267015,-22702.11185975694,4,A
1781611463189,1293.8142404756602,-4116.0232475773755,-19984.29870314714,4,A
1781611463211,-448.9386903839178,-1810.636273469594,-12849.53586831371,4,A
1781611463232,-2187.685292666807,4069.305416589277,-1632.0137137731103,4,A
1781611463254,-14663.392480475371,32797.278725037766,22349.16430217944,4,A
1781611463276,-17559.968041421293,32797.278725037766,31400.48871115549,4,A
1781611463297,-5993.697440521058,32797.278725037766,28171.32404211688,4,A
1781611463319,588.7004109784517,24801.7227691056,13454.869097807517,4,A
1781611463340,2647.953299396436,9374.908539927917,1029.429984773672,4,A
1781611463362,4819.383387961703,-1766.4563837218839,-9688.81982692305,4,A
1781611463383,4835.408702268458,-5561.910548411524,-17049.060494008554,4,A
1781611463405,5696.769346256525,-9879.490682846828,-21816.306090195227,4,A
1781611463427,2167.193870193794,-6565.998951768572,-18003.31489121822,4,A
1781611463448,-2087.52707824959,233.687715765355,-11291.322991857423,4,A
1781611463471,-4114.729338054065,5250.113378937165,-762.3135036579743,4,A
1781611463492,-11446.310633394358,32797.278725037766,29085.314540710104,4,A
1781611463513,-32311.26986078903,32797.278725037766,9126.499996540057,4,A
1781611463535,-8681.943915479165,32797.278725037766,21741.179433071175,4,A
1781611463557,-1658.8499205439007,22998.37999667634,12903.253686762268,4,A
1781611463578,2451.6431991386903,6671.902558090745,2829.2262529286068,4,A
1781611463599,3164.769685789276,-581.6320677605677,-10228.356068383368,4,A
1781611463622,2022.966041433001,-2364.8930721226843,-17761.73149951957,4,A
1781611463643,2351.484984721473,-3646.109874806277,-17882.523195368896,4,A
1781611463665,-268.65390443292694,-910.9730640616793,-15748.536568697496,4,A
1781611463687,-1690.90054915741,3125.462317433652,-11170.5312960081,4,A
1781611463708,-865.596862359541,3579.310275751038,-2880.1945708827966,4,A
1781611463729,-6009.722754827812,25785.729404395504,21962.630875461604,4,A
1781611463751,-17303.563012513216,32797.278725037766,31460.88455908015,4,A
1781611463773,-9727.595673994912,32797.278725037766,21447.25297317115,4,A
1781611463794,-869.6031909362297,25102.949290112712,12613.353616723889,4,A
1781611463815,-336.7614902366346,13086.019278735565,5406.115764380862,4,A
1781611463837,1438.042069236453,4948.886857930051,-3443.8891515129776,4,A
1781611463859,1073.4661687577825,-991.300136330243,-15172.762818482382,4,A
1781611463881,1646.3711552242646,-5240.602259337269,-22098.153380510317,4,A
1781611463902,2776.155813850474,-4071.8433578296654,-17181.931359442813,4,A
1781611463924,1189.6496974817544,743.7646246707352,-10039.115744886092,4,A
1781611463946,-1570.7106918567497,4547.2514965872315,-4023.6892915897347,4,A
1781611463966,-5412.779796901199,16427.62548510782,11965.10484899918,4,A
1781611463988,-14731.500066279079,32797.278725037766,30667.685756336254,4,A
1781611464011,-18705.778014354255,32797.278725037766,23557.081260672687,4,A
1781611464032,-4771.767224631009,31605.425790252953,16365.948967776236,4,A
1781611464054,59.865038855545244,14596.168237384565,6034.232582797349,4,A
1781611464074,1746.5293696414817,7965.168421614621,-331.4897884620503,4,A
1781611464096,2479.687499175511,3816.275138943301,-7019.323348652982,4,A
1781611464118,3280.953214513248,-1919.077821032155,-15829.064365930379,4,A
1781611464139,4370.67458737257,-3710.371532621128,-17302.723055292136,4,A
1781611464161,2091.0736272367085,-2051.6174902752855,-14701.675204670017,4,A
1781611464183,-989.7930482368903,3583.326629364466,-9354.629468406587,4,A
1781611464204,-2884.7864650106385,4250.041329193546,735.5035248736492,4,A
1781611464226,-11322.114447517008,32797.278725037766,25364.93030855091,4,A
1781611464247,-18721.803328661008,32797.278725037766,27225.122424630506,4,A
1781611464269,-7399.918770938786,32797.278725037766,20819.136154754666,4,A
1781611464291,-1550.6790489733062,24195.253373477943,12307.347987238934,4,A
1781611464311,-204.552647205908,12210.454191008219,4161.96129713282,4,A
1781611464333,2127.130584426907,4675.774812216934,-3367.3877441417385,4,A
1781611464355,3541.3645719980127,-1360.8046687656367,-12519.371899658889,4,A
1781611464377,4470.8328017897875,-4678.312753457322,-16714.870135492092,4,A
1781611464399,2555.807742132596,-4304.7918674085,-18095.921858036036,4,A
1781611464419,536.6181394814988,-1413.0172657402031,-12442.87049228765,4,A
1781611464441,-2199.704278396873,4085.3708310429897,-1334.0608640114433,4,A
1781611464464,-11089.747390069064,30942.7274440373,21205.669581472503,4,A
1781611464486,-19515.05638684537,32797.278725037766,27829.08090387713,4,A
1781611464508,-14278.784937113258,32797.278725037766,19844.749808236782,4,A
1781611464529,-1943.2992494887974,24516.561662552198,13128.73151901434,4,A
1781611464549,1926.8141555924726,12423.320932519913,5410.142154242506,4,A
1781611464572,2391.54827048836,5446.9147059951465,-3681.446153349982,4,A
1781611464593,2247.3204417275674,1792.032917775493,-10590.73115593134,4,A
1781611464615,3040.573499911927,-1786.5381517890248,-16207.54501292493,4,A
1781611464637,3252.9089144764275,-3324.801585732022,-17926.81348384698,4,A
1781611464657,1321.858540512481,-188.029413644605,-14069.531996391885,4,A
1781611464679,264.1877962666682,2506.943860965711,-5581.90216804602,4,A
1781611464702,-3670.0268660416205,11274.643799079451,10841.742077600464,4,A
1781611464723,-12824.487663775266,32797.278725037766,31372.30398212398,4,A
1781611464745,-19531.081701152125,32797.278725037766,23267.181190634306,4,A
1781611464767,-4687.634324520546,32797.278725037766,19220.659379681936,4,A
1781611464788,1518.1686407702266,15989.842941244146,9766.695984541477,4,A
1781611464809,1954.8584556292933,6784.360459266733,-1563.56508612516,4,A
1781611464831,2227.288798844124,3318.247290878205,-10180.039390043637,4,A
1781611464852,1946.845798475916,69.0172176147992,-15925.697722609839,4,A
1781611464874,1794.605312561746,-2730.3812509446498,-20036.641771348513,4,A
1781611464896,107.94098177580946,-814.5805773394027,-17789.91622855108,4,A
1781611464917,-905.6601481264279,1848.2618683634876,-8501.034817738027,4,A
1781611464938,-3357.533237059903,8443.114501612576,5583.276918293204,4,A
1781611464961,-13685.848307763332,32797.278725037766,25566.249801633116,4,A
1781611464983,-18176.942642231348,32797.278725037766,26677.5334034469,4,A
1781611465003,-4907.982396238424,32797.278725037766,22558.536574984937,4,A
1781611465025,2852.2760568075587,18580.391021905332,12697.907803818416,4,A
1781611465046,3713.636700795626,7495.255048843524,896.5591193394151,4,A
1781611465068,821.0674684263954,3519.0649715496147,-9684.793437061408,4,A
1781611465090,416.4282821808382,137.29522904307842,-17918.76070412369,4,A
1781611465111,284.2194391501116,101.14804652222472,-18687.801167697726,4,A
1781611465133,-416.8880617704083,-392.8634479294427,-17552.359226714074,4,A
1781611465155,484.53586798454586,-1866.8652240575886,-13288.412363232921,4,A
1781611465176,-537.0779190710689,2173.586511051171,505.9993027599327,4,A
1781611465198,-6061.805026324766,27544.89228707705,28155.218482670305,4,A
1781611465220,-32507.579961046777,32797.278725037766,11973.157628722469,4,A
1781611465241,-9138.665373221675,32797.278725037766,29407.425729641636,4,A
1781611465262,-4671.609010213792,24878.033487760735,13209.259316247224,4,A
1781611465284,-1146.0398627277489,9696.216829002173,2672.197048324485,4,A
1781611465306,-3858.324309145989,5900.762664312532,-9495.553113564132,4,A
1781611465328,-5444.830425514708,6133.711173891367,-17210.116088474322,4,A
1781611465349,-493.0083047274933,1374.332141978961,-17552.359226714074,4,A
1781611465370,1213.6876689418866,466.63622534419005,-16839.68822120306,4,A
1781611465392,1622.3331837641324,1113.2691571061287,-14625.173797298778,4,A
1781611465414,1249.7446261320847,2980.8735873502374,-10844.393717214922,4,A
1781611465435,1458.0737121198963,3683.7354697001706,1665.5995829134476,4,A
1781611465457,-1967.3372209489294,24990.491388936724,25038.792729757733,4,A
1781611465479,-9851.79185987226,32797.278725037766,32651.689360661407,4,A
1781611465501,-9443.146345050014,32797.278725037766,23987.90497586861,4,A
1781611465522,-1570.7106918567497,27994.72389178101,14268.199849859635,4,A
1781611465544,384.37765356732876,12182.339715714223,4363.280790215027,4,A
1781611465565,1514.162312193538,4523.153374906662,-7007.24417906805,4,A
1781611465587,-1258.217062875032,2113.3412068497482,-15740.483788974207,4,A
1781611465609,-681.3057478318615,579.0941265201794,-17640.939803670244,4,A
1781611465630,-885.6285052429845,1342.2013130715357,-16263.914470987947,4,A
1781611465651,728.9219111625557,117.21346097593748,-15237.185056268689,4,A
1781611465673,1534.1939550769814,374.2600922353417,-9592.186470243592,4,A
1781611465694,1253.7509547087734,3201.7730360887876,4025.064041836919,4,A
1781611465716,-7383.893456632031,32797.278725037766,28336.406026444292,4,A
1781611465738,-16273.936568304223,32797.278725037766,22957.149171287707,4,A
1781611465760,-5244.5139966802735,32797.278725037766,18556.305052510652,4,A
1781611465781,47.84605312547919,22673.055353988657,11647.020049929293,4,A
1781611465803,969.3016257638768,11318.82368882716,2519.194233582007,4,A
1781611465824,1409.997769199632,5217.982550029739,-6254.309274940593,4,A
1781611465846,-76.35013275187005,2386.453252562865,-12599.89969689177,4,A
1781611465868,841.0991113098388,-352.6999117951608,-15591.507364093373,4,A
1781611465889,512.5801680213667,-533.4358243994294,-15732.431009250919,4,A
1781611465911,127.97262465925289,-641.8773719619905,-14395.669575185062,4,A
1781611465933,-537.0779190710689,-1127.8561591868015,-10373.306103402556,4,A
1781611465954,-4018.577452213536,11222.431202104885,9412.37367671679,4,A
1781611465976,-12612.152249210765,32797.278725037766,25260.244172148163,4,A
1781611465997,-16366.082125568062,32797.278725037766,13422.657978914363,4,A
1781611466019,-2283.8371785073355,32797.278725037766,16949.775497714636,4,A
1781611466041,272.20045342004556,21938.0626427313,11755.732576193686,4,A
1781611466063,1958.864784205982,13025.773974534142,6336.211822420661,4,A
1781611466084,2824.231756770738,6193.956478092789,-705.9440455949562,4,A
1781611466105,520.592825174744,896.3860619810065,-10832.31454762999,4,A
1781611466126,-272.66023300961564,261.80219105935237,-15676.0615511879,4,A
1781611466149,-2283.8371785073355,3494.9668498690457,-16284.046420296167,4,A
1781611466170,-685.3120764085502,2956.7754656696684,-14484.250152141232,4,A
1781611466191,700.8776111257349,2635.467176595413,-10812.18259832177,4,A
1781611466212,-156.47670428564376,3820.2914925567293,-1245.4802870552721,4,A
1781611466235,-5092.273510766104,29079.13936740662,20529.236084716285,4,A
1781611466256,-9186.741316141939,32797.278725037766,27253.307153662015,4,A
1781611466277,-5781.362025956558,32797.278725037766,22715.56577958906,4,A
1781611466299,-2147.62200689992,32797.278725037766,16047.864168706348,4,A
1781611466322,-1170.077834187881,18632.603618879897,6899.906403050841,4,A
1781611466344,1369.9344834327453,3358.410827012487,-7059.587247269423,4,A
1781611466366,-412.8817331937196,2386.453252562865,-13703.130518982269,4,A
1781611466387,1061.4471830277166,-874.8258815408255,-17616.781464500382,4,A
1781611466408,1341.8901833959244,-280.4055467534534,-16779.292373278397,4,A
1781611466430,1029.396554414207,-328.60179011459167,-14927.153036922089,4,A
1781611466452,1265.7699404388395,1061.0565601315623,-3274.7807773239233,4,A
1781611466475,-1827.1157207648255,19604.56119332952,19345.477465392905,4,A
1781611466495,-11394.228361897405,32797.278725037766,28835.678369288165,4,A
1781611466518,-11830.918176756471,32797.278725037766,16442.450375147477,4,A
1781611466539,-232.59694724272876,24259.51503129279,13116.652349429409,4,A
1781611466561,1161.6053974449337,14298.958069990878,4612.9169616369645,4,A
1781611466582,2175.206527347171,6655.837143637032,-3584.8127966705224,4,A
1781611466603,1966.8774413593594,438.52175005019274,-10989.343752234112,4,A
1781611466625,933.2446685736786,1061.0565601315623,-14391.643185323417,4,A
1781611466646,-1783.04610642125,2225.7991080257375,-14532.566830480962,4,A
1781611466669,-2532.229550262034,2896.5301614682453,-13860.15972358639,4,A
1781611466690,-1807.084077881382,1446.6265070206684,-10091.458813087467,4,A
1781611466712,-833.5462337460316,5398.718462634008,2358.1386391162414,4,A
1781611466733,-6855.058084509125,32797.278725037766,23110.151986030185,4,A
1781611466756,-13080.892692683341,32797.278725037766,24241.56753715219,4,A
1781611466777,-4823.849496127962,32797.278725037766,19027.39266632302,4,A
1781611466798,372.35866783726266,24729.428404063892,11147.747707085418,4,A
1781611466820,428.44726791090426,14057.976853185186,4749.814216932866,4,A
1781611466841,3104.674757138946,5149.704538601461,-2827.8515026814225,4,A
1781611466862,2583.852042169417,-979.2510754899586,-12724.71778260274,4,A
1781611466885,2071.041984353265,-2999.4769430443384,-19162.915171371733,4,A
1781611466906,1209.681340365198,-3951.3527494268196,-20652.67942018007,4,A
1781611466927,1430.0294120830756,-1288.5103037239292,-14810.38773093441,4,A
1781611466949,-2015.4131638691936,4478.973485158953,-3073.461284241716,4,A
1781611466971,-8966.393244424062,25576.879016497238,17694.657622118804,4,A
1781611466993,-18076.78442781413,32797.278725037766,30297.257889064993,4,A
1781611467015,-11726.753633762566,32797.278725037766,16611.55874933653,4,A
1781611467036,1281.7952547455943,20275.292246772027,10676.660093273054,4,A
1781611467056,5644.687074759572,8563.605110015422,2358.1386391162414,4,A
1781611467079,5171.940302710307,3559.2285076838966,-7667.57211637769,4,A
1781611467101,2639.9406422430584,1113.2691571061287,-13594.417992717876,4,A
1781611467122,1125.5484402547354,322.0474952607752,-15406.293430457743,4,A
1781611467144,-376.82477600352144,518.8488223187566,-15366.029531841301,4,A
1781611467165,-1638.8182776604572,3719.8826522210243,-10932.974294171094,4,A
1781611467186,-3493.7484086673185,6559.444656914755,-480.4662133428838,4,A
1781611467208,-9034.50083022777,32797.278725037766,21894.182247813653,4,A
1781611467229,-29266.460142505628,32505.088999660868,-331.4897884620503,4,A
1781611467252,-7079.412484803692,32797.278725037766,16140.471135524163,4,A
1781611467273,-1362.3816058689379,19090.46793081071,7185.780083227576,4,A
1781611467295,1682.4281124144627,12483.566236721335,1049.5619340818928,4,A
1781611467316,1890.7571984022743,5109.541002467178,-8364.137562442127,4,A
1781611467337,380.37132499064006,4446.842656251527,-13417.256838805533,4,A
1781611467359,1269.7762690155282,2936.693697602527,-13272.306803786343,4,A
1781611467381,684.8522968189801,2804.1540283593968,-13219.96373558497,4,A
1781611467402,1726.4977267580382,2390.4696061762934,-10630.995054547782,4,A
1781611467424,728.9219111625557,3422.6724848273384,-3427.7835920664006,4,A
1781611467446,-4295.014124005055,12684.383917392746,12512.693870182786,4,A
1781611467468,-29562.92845718059,32797.278725037766,26737.929251371563,4,A
1781611467490,-13361.33569305155,32797.278725037766,13378.367690436278,4,A
1781611467511,-7215.627656411107,28312.015827241838,9287.555591005823,4,A
1781611467533,-869.6031909362297,15274.93199805393,5792.649191098701,4,A
1781611467554,-72.34380417518136,11170.218605130318,-1805.148477823809,4,A
1781611467576,993.3395972240089,7198.044881449838,-8742.618209436676,4,A
1781611467597,3016.535528451795,2960.791819283096,-10635.021444409427,4,A
1781611467619,4827.396045115081,824.091696939299,-11436.273026876612,4,A
1781611467641,2183.219184500548,2988.906294577094,-11162.47851628481,4,A
1781611467662,536.6181394814988,4370.531937596391,-10518.256138421746,4,A
1781611467684,332.2953820703758,2547.107397099993,-6367.048191066629,4,A
1781611467705,-2980.938350851167,9993.426996395858,3940.509854742392,4,A
1781611467726,-15693.018924684364,32797.278725037766,18117.42855759144,4,A
1781611467749,-24915.58730822172,32797.278725037766,13044.177331919813,4,A
1781611467770,-10933.500575578206,32797.278725037766,11944.97289969096,4,A
1781611467792,-1714.9385206175423,22640.92452508123,8562.805415909876,4,A
1781611467814,2115.1115986968407,12459.468115040767,2555.4317423368043,4,A
1781611467835,3905.9404724766828,5956.991614900527,-5730.878592926854,4,A
1781611467856,2840.2570710774926,5173.802660282029,-9717.00455595456,4,A
1781611467878,2191.2318416539256,2631.450822981985,-11786.568944839653,4,A
1781611467899,107.94098177580946,3085.29878129937,-13763.52636690693,4,A
1781611467922,-100.38810421200216,3667.670055246458,-12966.301174301389,4,A
1781611467943,-212.56530435928534,3161.6094999545057,-8637.932073033928,4,A
1781611467964,-1658.8499205439007,6563.461010528184,884.4799497544827,4,A
1781611467986,-13974.303965284918,29677.57605580742,14727.208294087068,4,A
1781611468008,-26109.473224074944,32797.278725037766,14497.70407197335,4,A
1781611468029,-9819.741231258751,32797.278725037766,16470.635104178986,4,A
1781611468050,-2728.5396505197796,26078.92321817576,14111.170645255514,4,A
1781611468072,400.40296787408346,15471.73332511191,7177.727303504287,4,A
1781611468093,1878.7382126722082,6463.052170192478,-4845.072823365142,4,A
1781611468116,1313.8458833591037,4571.349618267801,-10006.90462599294,4,A
1781611468137,2507.7317992123317,3382.5089486930565,-12197.260710727356,4,A
1781611468159,3469.2506576176165,265.81854467278055,-16223.650572371505,4,A
1781611468180,3308.997514550069,1028.9257312241368,-14991.575274708395,4,A
1781611468202,2539.7824278258413,3193.7403288619316,-8980.175211273681,4,A
1781611468223,-641.2424620649747,6463.052170192478,2543.3525727518722,4,A
1781611468245,-16402.13908275826,32797.278725037766,24861.63157584539,4,A
1781611468267,-31053.282687708783,32797.278725037766,18677.096748359978,4,A
1781611468289,-9687.532388228025,32797.278725037766,19111.946853417547,4,A
1781611468310,-2063.4891067894578,21042.415786936814,13334.077401958191,4,A
1781611468331,-1590.742334740193,13555.932651506662,6537.531315502868,4,A
1781611468353,3621.4911435317863,3756.029834741878,-5746.98415237343,4,A
1781611468375,5236.041559937326,-1898.996052965014,-19533.343038642997,4,A
1781611468396,7956.338663508944,-2103.8300872498517,-17701.33565159491,4,A
1781611468418,6930.7185478766405,-2208.255281198985,-16815.529882033195,4,A
1781611468439,3228.8709430162953,221.63865492507043,-13513.890195484993,4,A
1781611468462,-1186.103148494636,5386.669401793723,-7425.98872467904,4,A
1781611468482,-6101.868312091652,11005.548106979762,3884.1403966793737,4,A
1781611468505,-12620.164906364142,32797.278725037766,28751.12418219364,4,A
1781611468527,-19995.815816048012,32797.278725037766,29785.906376636183,4,A
1781611468547,-5476.881054128217,32797.278725037766,19856.828977821715,4,A
1781611468570,801.035825542952,20034.311029966335,11357.119979890915,4,A
1781611468591,2567.826727862662,11194.316726810886,4616.9433514986085,4,A
1781611468612,1966.8774413593594,6555.428303301327,-5606.060507215885,4,A
1781611468634,1786.5926554083685,1615.3133587846526,-15329.792023086504,4,A
1781611468655,1542.2066122303588,89.09898568194015,-16964.506306914027,4,A
1781611468677,640.7826824754046,964.6640734092857,-14669.464085776865,4,A
1781611468699,1121.5421116780467,667.4539060155996,-12607.952476615059,4,A
1781611468721,1185.6433689050657,-589.664774987424,-7430.015114540684,4,A
1781611468741,-5044.197567845839,11909.227670001104,10112.965512642873,4,A
1781611468764,-18525.493228403266,32797.278725037766,27676.07808913465,4,A
1781611468785,-23417.22042054015,32797.278725037766,8184.324768915325,4,A
1781611468807,-3165.2294653788463,30806.171421180745,17489.311739174955,4,A
1781611468828,-3445.672465747054,22516.41756306496,11107.483808468978,4,A
1781611468850,-312.7235187765025,13339.04955638154,3996.87931280541,4,A
1781611468872,3966.0354011270133,5880.680896245391,-6129.491189229625,4,A
1781611468893,3541.3645719980127,-561.5502996934267,-17177.90496958117,4,A
1781611468915,3473.256986194305,-1746.374615654743,-17975.13016218671,4,A
1781611468936,-112.40708994206821,3507.0159107093305,-15829.064365930379,4,A
1781611468958,256.1751391132908,3354.394473399059,-13453.49434756033,4,A
1781611468979,2083.060970083331,643.3557843350304,-9781.426793740868,4,A
1781611469001,564.6624395183196,5772.23934868283,6122.81315975352,4,A
1781611469023,-16722.645368893354,32797.278725037766,23935.561907667237,4,A
1781611469045,-26838.625025032285,32797.278725037766,20517.156915131352,4,A
1781611469066,-9359.013444939552,32797.278725037766,16603.50596961324,4,A
1781611469087,-1282.2550343351643,22383.877893821827,12746.224482158146,4,A
1781611469109,496.5548537146119,13455.523811170959,5051.793456556177,4,A
1781611469131,3260.9215716298045,4924.788736249481,-2207.787463988224,4,A
1781611469152,1822.6496125985668,2494.894800125426,-9225.784992833975,4,A
1781611469174,1782.5863268316798,-3007.509650271195,-19734.662531725204,4,A
1781611469196,1510.1559836168492,-2919.1498707757746,-19400.47217320874,4,A
1781611469217,376.36499641395136,1294.0050697103973,-12620.031646199992,4,A
1781611469239,632.7700253220272,1233.7597655089744,-8239.319476731158,4,A
1781611469259,-3053.052265231563,4442.826302638098,-3504.2849994376397,4,A
1781611469282,-17451.797169850695,29079.13936740662,13470.974657254093,4,A
1781611469303,-28421.124812824317,32797.278725037766,20980.19174922043,4,A
1781611469325,-9851.79185987226,32797.278725037766,19297.160787053177,4,A
1781611469347,-436.91970465385174,24130.99171566309,13177.04819735407,4,A
1781611469368,2055.0166700465106,16588.27962964495,8554.752636186588,4,A
1781611469389,2191.2318416539256,10045.639593370424,1947.446873228538,4,A
1781611469412,2055.0166700465106,6085.514930530228,-5199.395131189826,4,A
1781611469433,1077.4724973344712,743.7646246707352,-15974.014400949567,4,A
1781611469455,71.8840245856113,-1047.5290869182377,-20773.471116029392,4,A
1781611469476,272.20045342004556,559.0123584530385,-18325.42608014975,4,A
1781611469498,2315.428027531275,812.0426360990144,-11718.120317191702,4,A
1781611469519,424.4409393342156,2816.2030891996815,-5320.186827039151,4,A
1781611469542,-9170.716001835184,14242.729119402884,6002.021463904196,4,A
1781611469563,-21906.834547128514,32797.278725037766,23033.650578658948,4,A
1781611469585,-17055.170640758515,32797.278725037766,19832.67063865185,4,A
1781611469606,-1590.742334740193,30239.86556168737,17924.161844232523,4,A
1781611469627,328.28905349368716,20194.965174503464,11614.808931036141,4,A
1781611469649,1642.364826647576,11973.489327815956,4520.309994819149,4,A
1781611469671,472.5168822544798,8366.80378295744,-3311.0182860787204,4,A
1781611469692,-160.48303286233244,2900.5465150816735,-13103.198429597289,4,A
1781611469714,-589.1601905680218,-766.3843339782644,-23060.46055744327,4,A
1781611469735,496.5548537146119,309.99843442049064,-19625.95000546081,4,A
1781611469757,2824.231756770738,1924.5725870186232,-12611.978866476704,4,A
1781611469779,2724.0735423535207,1253.8415335761154,-8227.240307146227,4,A
1781611469800,-1350.362620138872,4928.80508986291,2350.085859392953,4,A
1781611469822,-11262.019518866678,32797.278725037766,26601.031996075664,4,A
1781611469843,-22199.29653322679,32797.278725037766,26085.65409378521,4,A
1781611469864,-5468.86839697484,32797.278725037766,18387.196678321598,4,A
1781611469887,-1827.1157207648255,22548.548391972385,10535.73644811551,4,A
1781611469909,204.0928676163379,13210.526240751838,4753.84060679451,4,A
1781611469929,1994.92174139618,6290.348964815066,-3802.2378491993068,4,A
1781611469951,476.5232108311685,1358.2667275252484,-14931.179426783734,4,A
1781611469974,-1398.4385630591362,-718.1880906171261,-22718.217419203516,4,A
1781611469994,-1823.1093921881368,2398.50231340315,-17777.837058966146,4,A
1781611470016,176.0485675795171,1446.6265070206684,-14029.268097775444,4,A
1781611470038,1397.978783469566,32.87003509394548,-10027.03657530116,4,A
1781611470059,2135.143241580284,-2605.874288928376,-2529.8986529197555,4,A
1781611470080,-6153.950583588606,16736.88471334179,18242.24664330241,4,A
1781611470103,-32507.579961046777,12021.685571177095,2829.2262529286068,4,A
1781611470124,15211.799715892153,10519.569319754952,10435.076701574404,4,A
1781611470147,-7339.823842288456,32797.278725037766,25276.34973159474,4,A
1781611470167,-6650.735327098002,27147.27327934766,11175.932436116927,4,A
1781611470189,428.44726791090426,9266.466992365355,-2763.4292648951164,4,A
1781611470211,-1594.7486633168817,6780.344105653306,-10506.176968836813,4,A
1781611470232,-1093.957591230796,4519.137021293234,-15474.742058105694,4,A
1781611470253,1281.7952547455943,2647.5162374356973,-15543.190685753643,4,A
1781611470275,2363.5039704515393,984.7458414764267,-16050.515808320806,4,A
1781611470297,684.8522968189801,2747.9250777714024,-14085.637555838463,4,A
1781611470318,220.11818192309266,3398.574363146769,-10224.329678521723,4,A
1781611470340,388.3839821440174,4631.594922469224,1319.3300548120508,4,A
1781611470362,-6506.50749833721,26195.39747296518,19985.673453394327,4,A
1781611470384,-14090.48749400889,32797.278725037766,32651.689360661407,4,A
1781611470405,-10112.203217357026,32797.278725037766,23400.052056068565,4,A
1781611470427,-1638.8182776604572,26127.119461536902,13724.637218537675,4,A
1781611470448,1634.3521694941985,12523.729772855619,5744.332512758971,4,A
1781611470470,3120.700071445701,3274.0674011304955,-5730.878592926854,4,A
1781611470492,1217.6939975185753,1125.3182179464134,-14439.959863663147,4,A
1781611470513,957.2826400338107,-573.5993605337113,-18289.188571394952,4,A
1781611470535,-953.7360910466921,1587.1988834906551,-16441.075624900288,4,A
1781611470557,-308.7171901998138,1796.0492713889212,-12454.949661872583,4,A
1781611470578,-925.6917910098713,651.3884915618868,-10643.074224132715,4,A
1781611470599,-104.39443278869085,3731.931713061309,787.8465930750231,4,A
1781611470622,-6153.950583588606,32797.278725037766,19534.717788890182,4,A
1781611470643,-27087.017396786985,21170.939102566514,-5271.870148699421,4,A
1781611470665,9514.800479840844,19962.016664924628,13744.769167845896,4,A
1781611470687,-5216.469696643453,32746.07021646656,15705.621030466596,4,A
1781611470707,-52.31216129173794,13732.652210497503,2180.9774852038986,4,A
1781611470729,-1134.020876997683,13335.033202768112,-1567.591475986804,4,A
1781611470751,-649.255119218352,5306.34232952516,-10598.783935654628,4,A
1781611470772,-452.94501896060643,6173.874710025649,-10779.971479428616,4,A
1781611470794,-240.60960439610614,5623.634264985987,-12861.61503789864,4,A
1781611470816,1434.0357406597643,3940.782100959575,-12338.184355884901,4,A
1781611470837,1173.6243831749998,5185.851721122314,-9894.165709866904,4,A
1781611470859,-220.5779615126627,4342.417462302394,-5581.90216804602,4,A
1781611470881,-6105.874640668341,22303.550821553265,11969.131238860826,4,A
1781611470902,-16005.512553666082,32797.278725037766,26774.16676012636,4,A
1781611470924,-7367.868142325277,32797.278725037766,13877.640033280151,4,A
1781611470946,-2231.754907010383,26006.628853134054,9968.015477623683,4,A
1781611470967,772.9915255061312,16230.824158049838,5357.799086041132,4,A
1781611470988,2479.687499175511,8840.733509341968,-528.7828916826136,4,A
1781611471009,1506.1496550401605,7013.292615232141,-7494.4373523269915,4,A
1781611471032,1257.757283285462,2567.1891651671335,-12314.026016715037,4,A
1781611471053,-845.5652194760976,4181.763317765266,-12551.58301855204,4,A
1781611471075,63.87136743223393,3330.29635171849,-11967.75648861364,4,A
1781611471097,1538.20028365367,2735.8760169311176,-8472.850088706518,4,A
1781611471118,1678.421783837774,3792.1770172627316,-2763.4292648951164,4,A
1781611471140,-5757.324054496426,20367.668379880877,9959.962697900395,4,A
1781611471162,-22315.48006195076,24620.98685650133,18487.856424862704,4,A
1781611471183,5011.68715964276,7543.4512922046615,-528.7828916826136,4,A
1781611471205,-10829.3360325843,32797.278725037766,14823.841650766528,4,A
1781611471226,-1170.077834187881,15495.83144679248,3791.533429861558,4,A
1781611471248,-689.3184049852389,13684.455967136366,-669.7065368401588,4,A
1781611471269,1133.5610974081128,6744.196923132452,-5759.063321958363,4,A
1781611471291,1149.5864117148676,3258.0019866767825,-11061.818769743706,4,A
1781611471313,929.2383399969899,3635.539226339032,-11291.322991857423,4,A
1781611471334,200.08653903964924,4575.365971881229,-11927.492589997199,4,A
1781611471355,2395.5545990650485,2294.0771194540166,-10010.931015854583,4,A
1781611471378,1566.2445836904908,1269.906948029828,-6729.423278614603,4,A
1781611471398,-3966.4951807165835,10632.02722093094,4133.776568101311,4,A
1781611471420,-1666.862577697278,32797.278725037766,16692.08654656941,4,A
1781611471442,-164.4893614390211,6507.232059940188,-6294.573173557035,4,A
1781611471463,-6206.032855085558,32797.278725037766,21121.115394377975,4,A
1781611471485,-4282.99513827499,21058.481201390525,7040.830048208386,4,A
1781611471507,-1202.1284628013905,12596.024137897326,-1342.1136437347316,4,A
1781611471528,680.8459682422914,9149.992737575938,-1519.2747976470741,4,A
1781611471550,1458.0737121198963,2944.7264048293837,-9749.215674847714,4,A
1781611471571,1145.580083138179,3671.686408859886,-10820.235378045058,4,A
1781611471593,-0.22988979478503244,3314.2309372647774,-11706.04114760677,4,A
1781611471615,388.3839821440174,3021.0371234845193,-10103.537982672398,4,A
1781611471636,388.3839821440174,2394.4859597897216,-6214.045376324152,4,A
1781611471658,-3181.254779685601,9832.77285185873,4141.829347824599,4,A
1781611471679,-26201.618781338784,27749.72632136189,24100.643891994645,4,A
1781611471701,-480.98931899742723,9905.067216900437,-2397.0277874854987,4,A
1781611471723,-13309.253421554597,32797.278725037766,15580.802944755627,4,A
1781611471744,-5380.729168287689,18022.117869638812,2567.510911921737,4,A
1781611471767,-3718.102808961885,13110.117400416133,-2948.643198530747,4,A
1781611471788,-881.6221766662958,9728.347657909597,-2501.7139238882464,4,A
1781611471809,1658.3901409543307,4330.368401462109,-7675.624896100978,4,A
1781611471831,2071.041984353265,3868.487735917867,-9290.20723062028,4,A
1781611471852,917.2193542669239,3663.65370163303,-10389.411662849134,4,A
1781611471874,580.6877538250743,4800.281774233207,-9491.526723702487,4,A
1781611471895,55.85871027885656,4764.1345917123535,-7828.627710843455,4,A
1781611471918,-1614.7803062003252,6222.070953386787,-1648.1192732196869,4,A
1781611471939,-12115.367505701368,32797.278725037766,17851.686826722926,4,A
1781611471961,-14246.734308499748,12322.912092184208,-4800.782534887056,4,A
1781611471982,9046.060036368266,25588.928077337525,22292.794844116423,4,A
1781611472004,-8349.418643614004,32797.278725037766,12395.928564195105,4,A
1781611472025,-3453.6851229004315,14576.086469317423,-838.814911029213,4,A
1781611472046,3264.927900206493,9660.069646481319,659.0021175024103,4,A
1781611472068,664.8206539355367,7246.241124810976,-4913.521451013092,4,A
1781611472091,2659.972285126502,4559.300557427517,-7144.14143436395,4,A
1781611472113,2207.2571559606804,3920.700332892434,-9632.450368860033,4,A
1781611472134,1446.0547263898302,4410.695473730673,-9636.476758721677,4,A
1781611472156,909.2066971135465,5061.34475910604,-7550.80681039001,4,A
1781611472177,-116.4134185187569,5234.047964483452,-2783.561214203337,4,A
1781611472198,-3762.1724233054606,16303.118523091545,8248.747006701631,4,A
1781611472221,-32507.579961046777,28247.754169426986,18644.885629466826,4,A
1781611472242,5961.187032317978,6197.972831706218,-456.3078741730189,4,A
1781611472264,-12027.228277014217,32797.278725037766,14449.387393633622,4,A
1781611472285,-3690.058508925064,14407.39961755344,-1.3258198072300804,4,A
1781611472307,-553.1032333778236,13114.133754029563,936.8230179558566,4,A
1781611472329,1169.6180545983111,7330.584550692967,-5054.445096170637,4,A
1781611472349,1061.4471830277166,8218.198699260598,-5155.10484271174,4,A
1781611472372,3661.5544292986733,4266.106743647259,-6918.6636021118775,4,A
1781611472394,2014.9533842796236,4121.518013563844,-10103.537982672398,4,A
1781611472415,1401.9851120462547,4290.204865327827,-9745.189284986069,4,A
1781611472437,-300.70453304643644,6812.4749345607315,-7059.587247269423,4,A
1781611472458,-1450.520834556089,6712.066094225026,-170.43419399628434,4,A
1781611472480,-8441.564200877843,28175.45980438528,13015.992602888304,4,A
1781611472502,-29226.396856738742,27195.4695227088,-61.72166773189232,4,A
1781611472523,4971.623873875873,32797.278725037766,18874.38985158054,4,A
1781611472545,-4062.647066557112,27348.09096001907,10857.84763704704,4,A
1781611472566,-1827.1157207648255,16656.55764107323,1182.4327995161498,4,A
1781611472588,2980.4785712615967,7402.8789157346755,-1140.7941506525242,4,A
1781611472609,1494.1306693100946,4828.396249527205,-9217.732213110687,4,A
1781611472630,2187.225513077237,2932.677343989099,-9322.418349513435,4,A
1781611472653,1005.3585829540749,4302.253926168112,-10349.147764232692,4,A
1781611472674,348.32069637713056,4213.894146672692,-10063.274084055958,4,A
1781611472696,31.82073881872445,5169.786306668601,-6342.889851896764,4,A
1781611472717,-933.7044481632487,6527.31382800733,1238.8022575791679,4,A
1781611472739,-9042.513487381146,32797.278725037766,32651.689360661407,4,A
1781611472760,-22119.169961693016,21448.06750189306,-93.93278662504551,4,A
1781611472782,5552.5415174957325,32797.278725037766,22312.926793424645,4,A
1781611472804,-1755.001806384429,22038.471483067002,6601.953553289174,4,A
1781611472825,-2035.444806752637,17696.79322695113,522.1048622065093,4,A
1781611472847,1373.940812009434,9848.838266312443,-5171.210402158317,4,A
1781611472868,-1282.2550343351643,8965.240471358242,-8090.3430518503255,4,A
1781611472890,-188.52733289915324,7559.5167066583745,-8259.451426039379,4,A
1781611472912,-288.6855473163704,6410.839573217912,-10119.643542118976,4,A
1781611472932,917.2193542669239,4695.856580284075,-10208.224119075147,4,A
1781611472955,2047.004012893133,4567.333264654372,-7522.6220813585005,4,A
1781611472975,404.40929645077216,6310.430732882207,-971.68577646347,4,A
1781611472997,-3413.621837133545,20801.43457013112,12206.688240697831,4,A
1781611473020,-24699.245565080528,31340.34645176669,15097.636161358329,4,A
1781611473041,4831.402373691769,18813.339531484165,8852.705485948254,4,A
1781611473063,-6013.729083404502,32797.278725037766,12754.277261881434,4,A
1781611473084,-1214.1474485314566,13487.654640078385,518.0784723448651,4,A
1781611473106,2026.9723700096897,11218.414848491457,1101.9050022832666,4,A
1781611473127,1518.1686407702266,6093.547637757085,-6467.707937607734,4,A
1781611473149,1113.5294545246695,5458.963766835431,-8674.169581788727,4,A
1781611473170,720.9092540091783,3189.7239752485034,-11259.11187296427,4,A
1781611473192,-68.33747559849267,3816.275138943301,-11291.322991857423,4,A
1781611473214,1365.9281548560566,2527.0256290328516,-8138.659730190055,4,A
1781611473235,-464.9640046906725,5591.503436078561,-1177.0316594073215,4,A
1781611473257,-32507.579961046777,32797.278725037766,5269.218509084961,4,A
1781611473278,-821.5272480159655,9250.401577911643,-1084.424692589506,4,A
1781611473299,5885.066789360893,9137.943676735653,3646.5833948423688,4,A
1781611473322,-13633.76603626638,32797.278725037766,14171.566493180175,4,A
1781611473342,-8325.380672153871,19375.629037364113,598.6062695777481,4,A
1781611473364,-2784.6282505934214,14114.205803773182,-1128.7149810675917,4,A
1781611473386,-1402.444891635825,9174.090859256507,-5759.063321958363,4,A
1781611473407,-561.115890531201,7724.18720480893,-7458.1998435721935,4,A
1781611473429,103.93465319912079,6069.4495160765155,-9527.764232457286,4,A
1781611473451,-120.41974709544559,5816.41923843054,-10691.390902472445,4,A
1781611473473,1566.2445836904908,4667.742104990078,-9688.81982692305,4,A
1781611473494,3172.7823429426535,3727.9153594478807,-7844.733270290032,4,A
1781611473516,1349.9028405493018,3366.4435342393435,-2095.0485478621877,4,A
1781611473537,-4743.722924594188,18733.012459215603,11916.78817065945,4,A
1781611473559,-31037.257373402026,23219.27944541489,10515.604498807288,4,A
1781611473580,3929.978443936815,4543.235142973804,1271.013376472321,4,A
1781611473602,-10897.443618388008,32797.278725037766,16454.529544732406,4,A
1781611473624,-2436.0776644215057,12776.760050501594,924.7438483709242,4,A
1781611473645,-949.7297624700034,16122.382610487277,-436.17592486479816,4,A
1781611473668,-420.894390347097,6165.842002798792,-7583.017929283163,4,A
1781611473688,744.9472254693104,4013.0764660012824,-10103.537982672398,4,A
1781611473710,708.8902682791122,4258.074036420402,-10192.11855962857,4,A
1781611473732,-1202.1284628013905,5884.697249858819,-10333.042204786116,4,A
1781611473754,-1895.2233065685332,7202.0612350632655,-8935.884922795596,4,A
1781611473775,-328.74883308325724,5322.4077439788725,-5259.790979114488,4,A
1781611473796,-3645.9888945814887,13796.913868312355,5063.872626141109,4,A
1781611473818,-32507.579961046777,32797.278725037766,5506.775510921966,4,A
1781611473839,-3894.381266336187,6005.187858261665,-5420.846573580255,4,A
1781611473862,-5172.400082299878,32797.278725037766,19176.36909120385,4,A
1781611473883,-4295.014124005055,20194.965174503464,6674.428570798769,4,A
1781611473905,-4579.463452949952,19600.54483971609,1766.2593294545513,4,A
1781611473927,-164.4893614390211,10129.983019252417,-1752.8054096224348,4,A
1781611473948,55.85871027885656,7680.007315061221,-6214.045376324152,4,A
1781611473969,1682.4281124144627,4828.396249527205,-8633.905683172285,4,A
1781611473991,2463.6621848687564,3157.5931463410775,-10860.4992766615,4,A
1781611474013,853.1180970399049,5298.309622298303,-11146.372956838233,4,A
1781611474034,1878.7382126722082,4354.466523142679,-9374.761417714808,4,A
1781611474055,2339.465998991407,2378.4205453360087,-6218.071766185796,4,A
1781611474077,-52.31216129173794,7402.8789157346755,2032.001060323065,4,A
1781611474099,-9266.867887675713,28990.7795879112,12818.69949966774,4,A
1781611474120,-31982.750917500558,30464.781364039347,16080.075287599502,4,A
1781611474142,5624.655431876129,3836.356907010442,1955.4996529518262,4,A
1781611474164,-6153.950583588606,32797.278725037766,15230.507026792586,4,A
1781611474186,-3537.818023010894,17078.27477048319,3127.179102690274,4,A
1781611474208,-2327.906792850911,14234.696412176027,1109.957782006555,4,A
1781611474229,937.2509971503673,6193.956478092789,-6330.810682311832,4,A
1781611474250,1522.1749693469153,4145.616135244412,-10256.540797414877,4,A
1781611474272,1854.7002412120762,3274.0674011304955,-10739.707580812174,4,A
1781611474293,500.5611822913006,4085.3708310429897,-10864.525666523143,4,A
1781611474315,-561.115890531201,5410.767523474293,-8931.858532933951,4,A
1781611474337,-949.7297624700034,4964.952272383764,-3649.235034456829,4,A
1781611474359,-5709.248111576161,18194.821075016225,7069.014777239895,4,A
1781611474381,-32507.579961046777,32797.278725037766,-1128.7149810675917,4,A
1781611474401,-2912.830765047459,3804.2260781030163,-5686.588304448768,4,A
1781611474423,-3229.330722605865,32797.278725037766,20150.755437721735,4,A
1781611474445,-1670.8689062739668,18415.720523754775,6706.639689691922,4,A
1781611474466,-825.5335765926542,16648.524933846373,1838.734346964146,4,A
1781611474489,2307.4153703778975,6965.096371871003,-3407.65164275818,4,A
1781611474509,296.23842488017766,5462.980120448859,-8388.295901611991,4,A
1781611474531,2071.041984353265,4579.382325494657,-8235.293086869515,4,A
1781611474553,748.9535540459991,5695.928630027694,-10397.464442572422,4,A
1781611474574,107.94098177580946,5434.865645154861,-10167.960220458704,4,A
1781611474596,-188.52733289915324,4711.921994737788,-6052.989781858386,4,A
1781611474617,-1967.3372209489294,10644.076281771226,3578.134767194418,4,A
1781611474639,-8657.905944019032,29516.921911270292,13523.317725455467,4,A
1781611474661,-11818.899191026405,32797.278725037766,14413.149884878823,4,A
1781611474682,-8113.045257589372,32797.278725037766,12577.116107969092,4,A
1781611474703,-4335.077409771942,24673.199453475896,8349.406753242736,4,A
1781611474726,-3305.4509655629504,17078.27477048319,2450.7456059340566,4,A
1781611474748,-3317.4699512930165,11483.494186977716,-4027.715681451379,4,A
1781611474769,-2736.552307673157,8704.177486485409,-7140.115044502306,4,A
1781611474789,-825.5335765926542,7161.897698928984,-7921.234677661271,4,A
1781611474812,272.20045342004556,5944.9425540602415,-10469.939460082016,4,A
1781611474834,1482.1116835800285,3494.9668498690457,-11214.821584486184,4,A
1781611474855,2435.6178848319355,3414.639777600482,-8166.844459221564,4,A
1781611474876,1546.2129408070475,2418.5840814702906,-4035.768461174667,4,A
1781611474898,-1702.9195348874762,11575.870320086566,5559.118579123339,4,A
1781611474919,33131.10585727647,32797.278725037766,32651.689360661407,4,A
1781611474942,-18200.98061369148,10515.552966141522,2801.0415238970977,4,A
1781611474963,7840.155134784972,23327.72099297745,21708.968314178022,4,A
1781611474985,-8705.981886939297,32797.278725037766,16555.189291273513,4,A
1781611475006,-7744.463028534014,21287.41335735593,2406.455317455971,4,A
1781611475028,1081.47882591116,8872.864338249392,-1366.2719829045966,4,A
1781611475050,-773.4513050957013,7009.276261618713,-7707.836014994131,4,A
1781611475071,2151.168555887039,4410.695473730673,-8545.325106216113,4,A
1781611475093,2483.6938277522,3940.782100959575,-11315.481331027288,4,A
1781611475114,3565.402543458145,2474.8130320582854,-10989.343752234112,4,A
1781611475136,3389.1240860838425,3812.258785329873,-7973.577745862645,4,A
1781611475157,2716.0608852001433,3715.866298607596,-5247.711809529556,4,A
1781611475179,1133.5610974081128,6732.147862292168,2692.3289976327055,4,A
1781611475201,-8826.171744239957,28223.656047746415,13076.388450812967,4,A
1781611475223,-31033.251044825338,32797.278725037766,29121.5520494649,4,A
1781611475244,4554.96570190025,11113.989654542323,7858.187190122148,4,A
1781611475265,-9102.608416031477,32797.278725037766,10539.762837977152,4,A
1781611475287,-1899.229635145222,15375.340838389633,2885.595710991625,4,A
1781611475308,-1554.6853775499949,14045.927792344903,-403.964805971645,4,A
1781611475330,524.5991537514327,8607.784999763133,-3906.9239856020545,4,A
1781611475351,981.3206114939428,5330.440451205729,-7538.727640805077,4,A
1781611475374,652.8016682054706,4466.924424318668,-10018.983795577871,4,A
1781611475395,997.3459258006976,4165.697903311553,-10087.432423225822,4,A
1781611475416,1017.377568684141,4426.760888184386,-7909.155508076338,4,A
1781611475438,-456.95134753729513,6720.0988014518825,-2678.875077800589,4,A
1781611475460,-3998.5458093300927,14395.350556713154,3622.4250556725037,4,A
1781611475482,-30464.352386935545,32797.278725037766,12118.107663741659,4,A
1781611475503,1053.4345258743392,6784.360459266733,989.1660861572306,4,A
1781611475525,1906.782512709029,32797.278725037766,18077.164658974998,4,A
1781611475546,-6350.260683846351,25737.533161034367,6887.827233465909,4,A
1781611475569,-4363.121709808763,19869.64053181578,1258.9342068873884,4,A
1781611475589,776.9978540828199,11704.393635716267,1178.4064096545055,4,A
1781611475611,-36.2868469849832,9945.230753034719,-2562.109771812909,4,A
1781611475633,861.1307541932823,5728.059458935119,-6971.006670313252,4,A
1781611475654,853.1180970399049,4599.464093561798,-11045.71321029713,4,A
1781611475676,1353.9091691259905,5161.753599441745,-9825.717082218953,4,A
1781611475698,1966.8774413593594,4487.006192385808,-7921.234677661271,4,A
1781611475719,1570.2509122671795,5137.6554777611755,-7321.302588276293,4,A
1781611475740,55.85871027885656,4278.155804487543,-3536.496118330793,4,A
1781611475762,-6206.032855085558,15768.943492505596,7286.439829768679,4,A
1781611475785,-24747.321508000794,11363.003578574871,26315.158315898927,4,A
1781611475805,3601.459500648343,7539.434938591234,2692.3289976327055,4,A
1781611475827,-3882.3622806061207,32797.278725037766,12106.028494156726,4,A
1781611475849,-5204.450710913387,19672.839204757798,2458.798385657345,4,A
1781611475869,-1398.4385630591362,14037.895085118045,-1003.8968953566232,4,A
1781611475892,1638.3584980708872,8551.556049175138,-2727.191756140319,4,A
1781611475913,853.1180970399049,5338.4731584325855,-8207.108357838006,4,A
1781611475935,732.9282397392443,5659.781447506841,-8130.606950466767,4,A
1781611475956,67.87769600892261,6157.809295571936,-8513.11398732296,4,A
1781611475978,448.4789107943477,5973.05702935424,-7063.613637131068,4,A
1781611476000,-661.2741049484181,8655.98124312427,-3592.865576393811,4,A
1781611476022,-3509.7737229740733,12342.99386025135,1862.8926861340108,4,A
1781611476042,-22668.036976699364,8836.717155728538,15665.357131850154,4,A
1781611476064,2860.288713960936,5675.846861960553,3646.5833948423688,4,A
1781611476086,-609.1918334514652,32797.278725037766,15677.436301435087,4,A
1781611476107,-8321.374343577183,26878.177587247974,5740.3061228973265,4,A
1781611476129,-3385.577537096724,16367.380180906397,-291.2258898456088,4,A
1781611476151,-200.5463186292193,10423.176833032674,-1213.2691681621188,4,A
1781611476172,300.24475345686636,7435.0097446421005,-4704.149178207596,4,A
1781611476194,1510.1559836168492,6551.411949687898,-6467.707937607734,4,A
1781611476215,1782.5863268316798,4543.235142973804,-8960.04326196546,4,A
1781611476237,1798.6116411384346,4442.826302638098,-8621.826513587352,4,A
1781611476258,1778.579998254991,5165.769953055173,-5549.691049152867,4,A
1781611476280,-1654.843591967212,8463.196269679718,820.0577119681762,4,A
1781611476302,-8629.861643982213,26472.525872291724,7427.363474926225,4,A
1781611476323,-14178.62672269604,14335.105252511732,5567.171358846628,4,A
1781611476345,2848.26972823087,5242.080671710309,-110.0383460716221,4,A
1781611476367,-9923.905774252657,32797.278725037766,11075.272689575824,4,A
1781611476388,-869.6031909362297,15752.878078051883,-722.0496050415327,4,A
1781611476410,2383.535613334983,12443.402700587054,236.23118202977471,4,A
1781611476431,2022.966041433001,7997.299250522047,-3121.7779625814455,4,A
1781611476453,1830.662269751944,6366.659683470202,-6262.362054663881,4,A
1781611476474,2555.807742132596,4302.253926168112,-8356.084782718839,4,A
1781611476496,2479.687499175511,3743.9807739015937,-7953.445796554424,4,A
1781611476517,1281.7952547455943,5519.209071036854,-5823.485559744669,4,A
1781611476539,-1278.2487057584756,7772.383448170069,-1632.0137137731103,4,A
1781611476561,-32507.579961046777,32797.278725037766,2096.4232981093714,4,A
1781611476582,-10532.867717909337,16323.200291158686,1858.8662962723668,4,A
1781611476604,4442.788501752967,7294.437368172114,1122.0369515914874,4,A
1781611476625,-6298.178412349398,32797.278725037766,8111.84975140573,4,A
1781611476647,-8028.91235747891,26520.722115652865,3743.2167515218284,4,A
1781611476669,-1109.9829055375508,11616.033856220847,-1136.7677607908802,4,A
1781611476691,224.12451049978134,10808.746779921781,-1889.7026649183358,4,A
1781611476711,43.83972454879051,8149.920687832318,-4317.615751489758,4,A
1781611476734,1337.8838548192357,6856.654824308441,-6656.948261105008,4,A
1781611476755,2243.3141131508787,4543.235142973804,-7421.962334817396,4,A
1781611476777,3761.7126437158904,4133.567074404128,-5666.456355140547,4,A
1781611476798,3585.434186341588,3021.0371234845193,-4700.122788345951,4,A
1781611476819,-881.6221766662958,7929.021239093768,860.3216105846178,4,A
1781611476842,-32507.579961046777,32797.278725037766,6618.059112735751,4,A
1781611476863,-18974.202028992397,16455.739960401817,6811.3258260946695,4,A
1781611476885,-4411.197652729027,12764.71098966131,739.5299147352933,4,A
1781611476906,-9142.671701798363,32797.278725037766,6694.560520106989,4,A
1781611476928,-6302.184740926086,18777.19234896331,2007.8427211532003,4,A
1781611476950,-685.3120764085502,12178.323362100793,-806.6037921360598,4,A
1781611476971,-312.7235187765025,10117.933958412132,-2610.4264501526386,4,A
1781611476993,-152.47037570895506,8270.411296235165,-5698.667474033701,4,A
1781611477014,668.8269825122254,6531.330181620758,-6479.787107192666,4,A
1781611477036,324.28272491699846,6234.120014227072,-7595.097098868095,4,A
1781611477058,1602.3015408806891,4756.101884485498,-7679.651285962622,4,A
1781611477079,1574.2572408438682,6523.297474393901,-4128.375427992482,4,A
1781611477099,-2247.7802213171376,8471.228976906574,598.6062695777481,4,A
1781611477122,-32507.579961046777,32797.278725037766,13909.851152173305,4,A
1781611477143,-17471.82881273414,16576.230568804665,4729.682267624645,4,A
1781611477166,-2103.552392556345,10105.884897571847,4826.315624304105,4,A
1781611477187,-11955.11436263382,32797.278725037766,4025.064041836919,4,A
1781611477209,-4134.760980937508,15347.226363095637,-178.48697371957263,4,A
1781611477230,432.45359648759296,10881.041144963488,-2477.555584718382,4,A
1781611477252,1490.124340733406,7643.860132540367,-3508.3113892992837,4,A
1781611477274,2038.9913557397556,6683.951618931029,-5718.799423341921,4,A
1781611477295,5115.851702636666,4928.80508986291,-9322.418349513435,4,A
1781611477317,-1702.9195348874762,5936.909846833386,-7816.548541258523,4,A
1781611477338,-4066.6533951338006,6832.556702627872,-5465.13686205834,4,A
1781611477360,-2255.7928784705146,8338.689307663444,-975.7121663251141,4,A
1781611477381,-9266.867887675713,23351.81911465802,7717.263544964603,4,A
1781611477403,-23345.10650615975,16311.1512303184,14477.57212266513,4,A
1781611477424,-3986.5268236000265,32797.278725037766,-1809.174867685453,4,A
1781611477447,-3874.3496234527433,32797.278725037766,11212.169944871726,4,A
1781611477467,-5432.811439784642,22062.569604747572,4419.650248278045,4,A
1781611477490,-144.45771855557769,15531.978629313333,2160.845535895678,4,A
1781611477511,1109.5231259479808,11154.153190676605,167.78255438182418,4,A
1781611477533,372.35866783726266,8370.820136570868,-5155.10484271174,4,A
1781611477554,3469.2506576176165,6844.6057634681565,-7820.574931120167,4,A
1781611477576,-1358.3752772922494,9077.69837253423,-5996.620323795368,4,A
1781611477597,43.83972454879051,6133.711173891367,-6556.288514563905,4,A
1781611477619,2892.3393425744457,7081.57062666042,-5126.920113680231,4,A
1781611477641,-3878.355952029432,17744.989470312266,1536.755107340835,4,A
1781611477662,-14394.96846583723,29677.57605580742,10036.464105271634,4,A
1781611477684,-16065.60748231641,32797.278725037766,10567.947567008661,4,A
1781611477705,-1903.2359637219104,21681.016011471893,8280.958125594785,4,A
1781611477727,2387.5419419116715,23207.230384574606,6803.2730463713815,4,A
1781611477749,-513.0399476109367,18861.535774845306,3159.390221583427,4,A
1781611477770,-9326.962816326042,6535.346535234186,-9366.70863799152,4,A
1781611477792,981.3206114939428,8603.768646149703,-2541.977822504688,4,A
1781611477813,1902.7761841323404,7631.811071700082,-4072.0059699294648,4,A
1781611477835,1434.0357406597643,7430.993391028673,-6032.857832550165,4,A
1781611477856,624.7573681686498,6571.49371775504,-7083.745586439288,4,A
1781611477877,83.90301031567735,8182.051516739744,-5219.527080498047,4,A
1781611477900,-597.1728477213991,7214.11029590355,-3633.1294750102525,4,A
1781611477923,-4543.406495759754,12479.549883107908,5313.508797563047,4,A
1781611477944,-13153.006607063737,14989.770891500528,17110.831092180404,4,A
1781611477966,-2143.615678323232,12463.484468654195,2849.3582022368273,4,A
1781611477987,-10665.076560940064,32797.278725037766,10318.311395586725,4,A
1781611478009,-3317.4699512930165,17022.045819895193,3396.947223420432,4,A
1781611478031,-308.7171901998138,12539.795187309332,-528.7828916826136,4,A
1781611478052,2251.326770304256,7402.8789157346755,-2912.4056897759497,4,A
1781611478073,1958.864784205982,5483.061888516,-5251.7381993912,4,A
1781611478095,917.2193542669239,5948.95890767367,-6069.095341304963,4,A
1781611478117,-1101.9702483841734,6133.711173891367,-8839.251566116136,4,A
1781611478138,-893.6411623963618,6740.180569519023,-6399.2593099597825,4,A
1781611478159,-521.0526047643141,6310.430732882207,-2658.743128492368,4,A
1781611478182,-7035.3428704601165,15403.455313683631,4451.861367171198,4,A
1781611478203,-13830.076136524125,26460.47681145144,17130.963041488623,4,A
1781611478224,-4399.1786669989615,15154.441389651083,1738.0746004230423,4,A
1781611478246,-4262.963495391546,32797.278725037766,9738.511255509968,4,A
1781611478268,-5665.178497232586,20082.507273327476,3376.815274112211,4,A
1781611478290,-4042.6154236736684,16829.26084645064,135.57143548867097,4,A
1781611478311,-1150.0461913044376,10780.632304627783,-2139.3388363402732,4,A
1781611478333,152.010596119385,8338.689307663444,-4446.460227062371,4,A
1781611478355,1405.9914406229434,6242.152721453928,-5755.036932096719,4,A
1781611478376,492.54852513792326,6860.6711779218695,-7252.853960628342,4,A
1781611478398,420.4346107575269,5944.9425540602415,-7421.962334817396,4,A
1781611478419,264.1877962666682,7145.832284475271,-4893.389501704871,4,A
1781611478441,-384.8374331568988,7137.799577248415,-1164.9524898223892,4,A
1781611478462,-6057.798697748077,18500.063949636766,6726.771639000142,4,A
1781611478484,-12239.563691578716,16620.410458552375,8156.140039883816,4,A
1781611478506,-428.90704750047433,12290.781263276784,5530.93385009183,4,A
1781611478528,-11097.760047222442,32797.278725037766,8675.544332035912,4,A
1781611478549,-6530.545469797342,18347.442512326495,747.5826944585816,4,A
1781611478571,-1142.0335341510604,12973.561377559576,-194.59253316614922,4,A
1781611478592,1009.3649115307636,7888.857702959486,-2735.2445358636073,4,A
1781611478613,1373.940812009434,7033.374383299281,-4772.5978058555465,4,A
1781611478635,1590.282555150623,4607.496800788655,-7067.640026992712,4,A
1781611478656,1958.864784205982,3575.2939221376096,-8525.193156907892,4,A
1781611478678,1826.6559411752553,3555.2121540704684,-8058.1319329571725,4,A
1781611478700,1297.820569052349,4944.870504316623,-3500.2586095759957,4,A
1781611478722,-4443.248281342537,12849.054415543302,4117.671008654735,4,A
1781611478743,-13613.734393382936,32613.53054722343,21547.912719712254,4,A
1781611478765,-1718.944849194231,12527.746126469046,280.52147050786033,4,A
1781611478786,-6186.001212202115,32797.278725037766,9283.529201144178,4,A
1781611478808,-5008.1406106556415,17198.765378886033,1496.4912087243933,4,A
1781611478829,-3341.5079227531483,14672.4789560397,-782.4454529661949,4,A
1781611478851,1658.3901409543307,7860.743227665489,-2590.294500844418,4,A
1781611478872,1614.320526610755,6334.528854562776,-6057.01617172003,4,A
1781611478894,1894.763526978963,4527.169728520091,-7099.851145885865,4,A
1781611478915,1265.7699404388395,4041.1909412952796,-8476.876478568163,4,A
1781611478937,1357.9154977026792,4844.461663980917,-6455.628768022801,4,A
1781611478959,-480.98931899742723,8680.07936480484,-2268.183311912886,4,A
1781611478981,-2003.3941781391277,32797.278725037766,18874.38985158054,4,A
1781611479002,-13497.550864658964,16017.957416538144,6597.92716342753,4,A
1781611479023,5003.674502489383,6306.414379268779,4830.342014165749,4,A
1781611479045,-10372.61457484179,32797.278725037766,10531.710058253864,4,A
1781611479067,-9727.595673994912,21881.833692143304,1331.4092243969833,4,A
1781611479088,-3545.8306801642716,13861.175526127205,224.15201244484226,4,A
1781611479109,-292.69187589305903,9149.992737575938,-2682.9014676622332,4,A
1781611479131,148.0042675426963,7547.46764581809,-5183.289571743249,4,A
1781611479152,1285.8015833222828,5434.865645154861,-7075.692806716,4,A
1781611479175,2103.0926129667746,3960.8638690267157,-8621.826513587352,4,A
1781611479196,2187.225513077237,3623.490165498748,-8388.295901611991,4,A
1781611479218,2824.231756770738,5471.012827675715,-5356.424335793949,4,A
1781611479238,-120.41974709544559,5511.176363809997,-734.1287746264652,4,A
1781611479261,-7468.0263567424945,32797.278725037766,32651.689360661407,4,A
1781611479282,-14046.417879665314,16339.265705612399,5192.717101713722,4,A
1781611479304,4887.490973765411,7985.250189681763,4939.054540430141,4,A
1781611479326,-16502.29729717548,32797.278725037766,6171.12983809325,4,A
1781611479347,-6610.672041331116,17644.580629976565,-367.72729721684766,4,A
1781611479368,268.19412484335686,10254.48998126869,-2231.9458031580884,4,A
1781611479390,1854.7002412120762,6101.580344983941,-4937.679790182957,4,A
1781611479412,1858.706569788765,4145.616135244412,-6338.86346203512,4,A
1781611479433,2483.6938277522,3097.347842139655,-8146.712509913344,4,A
1781611479455,893.1813828067917,4205.8614394458355,-7945.393016831136,4,A
1781611479476,-116.4134185187569,6081.498576916801,-6024.805052826877,4,A
1781611479499,-1670.8689062739668,5089.4592344000375,-2413.1333469320753,4,A
1781611479520,-5524.956997048482,32797.278725037766,24668.364862486473,4,A
1781611479542,-21053.486560293826,12515.697065628761,1399.8578520449337,4,A
1781611479563,7106.9970052509425,2310.1425339077296,252.3367414763513,4,A
1781611479585,-12047.25991989766,32797.278725037766,10660.554533826476,4,A
1781611479607,-6702.817598594956,19528.250474674383,2048.106619769642,4,A
1781611479628,-2267.8118642005807,14439.530446460865,908.6382889243475,4,A
1781611479650,-513.0399476109367,10684.239817905507,-1720.5942907292817,4,A
1781611479671,-80.35646132855874,8812.61903404797,-4164.61293674728,4,A
1781611479693,1666.402798107708,6121.662113051082,-6052.989781858386,4,A
1781611479714,1277.7889261689056,5948.95890767367,-7607.176268453028,4,A
1781611479736,1510.1559836168492,5691.912276414266,-7981.630525585933,4,A
1781611479757,1486.1180121567172,6615.67360750275,-5529.559099844647,4,A
1781611479779,-921.6854624331826,7675.990961447792,-810.630181997704,4,A
1781611479801,-6875.089727392568,20893.810703239968,9078.183318200327,4,A
1781611479823,-17852.430027519564,17716.874995018272,12053.685425955353,4,A
1781611479844,8244.79432103053,21797.490266261313,3851.9292777862206,4,A
1781611479865,-9387.057744976373,29601.265337152287,8820.494367055102,4,A
1781611479887,-1891.2169779918445,12688.400271006174,1476.3592594161726,4,A
1781611479908,1129.554768831424,11158.169544290033,-500.59816265110453,4,A
1781611479931,1786.5926554083685,5985.106090194524,-5287.9757081459975,4,A
1781611479952,1466.0863692732737,5141.671831374604,-7079.719196577644,4,A
1781611479973,127.97262465925289,4639.62762969608,-8947.964092380527,4,A
1781611479995,-857.5842052061637,5539.290839103995,-8670.143191927082,4,A
1781611480017,-128.43240424882296,5944.9425540602415,-6193.913427015931,4,A
1781611480037,-581.1475334146444,6125.678466664511,-2147.3916160635613,4,A
1781611480059,-29971.573972002836,32797.278725037766,-11722.146707053347,4,A
1781611480081,-18333.189456722208,18684.816215854466,7189.80647308922,4,A
1781611480103,9975.528266160041,2727.843309704261,-1056.239963557997,4,A
1781611480125,-7672.349114153617,32797.278725037766,13623.97747199657,4,A
1781611480146,-5637.134197195765,18102.444941907375,3195.627730338224,4,A
1781611480168,-2444.090321574883,14732.724260241122,916.6910686476359,4,A
1781611480190,-172.50201859239849,10467.356722780385,-1559.5386962635157,4,A
1781611480211,-549.0969048011349,8250.329528168024,-5235.632639944623,4,A
1781611480232,1177.6307117516883,6422.888634058197,-6455.628768022801,4,A
1781611480253,-480.98931899742723,6936.981896577005,-8509.087597461315,4,A
1781611480276,921.2256828436125,4258.074036420402,-8690.275141235303,4,A
1781611480297,2159.1812130404164,3980.945637093857,-5767.116101681651,4,A
1781611480319,-541.0842476477575,6744.196923132452,1122.0369515914874,4,A
1781611480340,-32507.579961046777,32541.23618218172,11047.087960544315,4,A
1781611480362,-4623.533067293528,13411.343921423248,4935.028150568496,4,A
1781611480384,1634.3521694941985,16254.922279730406,4713.576708178069,4,A
1781611480405,-14431.025423027428,32011.0775052092,8023.269174449559,4,A
1781611480427,-4627.539395870216,12628.15496680475,-2372.8694483156337,4,A
1781611480449,-893.6411623963618,11350.954517734586,46.99085853249971,4,A
1781611480470,-1077.9322769240414,7443.042451868957,-5324.213216900795,4,A
1781611480491,-933.7044481632487,6748.21327674588,-7236.748401181766,4,A
1781611480513,332.2953820703758,4703.889287510931,-8380.243121888703,4,A
1781611480535,1045.4218687209618,2932.677343989099,-8247.372256454446,4,A
1781611480556,1742.523041064793,2366.371484495724,-7635.360997484537,4,A
1781611480578,-224.5842900893514,4173.73061053841,-1454.8525598607678,4,A
1781611480599,-26097.45423834488,32797.278725037766,-10953.106243479315,4,A
1781611480621,-8661.912272595722,16825.244492837213,9408.347286855147,4,A
1781611480642,6293.712304183139,7045.4234441395665,1033.4563746353163,4,A
1781611480664,-12736.348435088114,32797.278725037766,11260.486623211455,4,A
1781611480686,-10496.81076071914,22239.289163738413,3771.4014805533375,4,A
1781611480707,-3754.159766152083,12118.07805789937,-1688.3831718361284,4,A
1781611480729,-2776.615593440044,10848.910316056063,-2393.0013976238547,4,A
1781611480750,-2215.729592703628,9206.221688163932,-4780.650585578835,4,A
1781611480772,-136.44506140220034,6836.5730562413,-6507.971836224175,4,A
1781611480794,71.8840245856113,6165.842002798792,-7985.656915447577,4,A
1781611480815,3437.200029004107,3097.347842139655,-6757.608007646112,4,A
1781611480837,3765.718972292579,3844.3896142372982,-3749.8947809979327,4,A
1781611480858,-2243.773892740449,11190.300373197459,3050.6776953190347,4,A
1781611480880,-25208.04929431999,4732.003762804929,7511.917662020752,4,A
1781611480902,-5773.34936880318,11640.131977901416,3215.759679646445,4,A
1781611480923,-8409.513572264334,32797.278725037766,17396.704772357138,4,A
1781611480945,-12788.430706585066,19082.435223583856,-1229.3747276086956,4,A
1781611480966,-3221.318065452488,12162.25794764708,-347.5953479086269,4,A
1781611480988,115.95363892918684,8346.7220148903,-2099.0749377238317,4,A
1781611481009,985.3269400706315,5579.454375238277,-6580.44685373377,4,A
1781611481031,1438.042069236453,5531.258131877138,-7003.217789206405,4,A
1781611481052,1534.1939550769814,4113.485306336987,-7893.049948629762,4,A
1781611481074,2235.3014559975013,3551.1958004570406,-7156.220603948883,4,A
1781611481096,692.8649539723575,4824.379895913777,-4587.383872219915,4,A
1781611481117,-3000.9699937346104,10053.672300597282,2092.3969082477274,4,A
1781611481139,-23020.59389144797,-1754.4073228815994,1532.7287174791907,4,A
1781611481159,4182.377144268202,8157.953395059175,1375.6995128750689,4,A
1781611481182,-8726.01352982274,32797.278725037766,11377.251929199136,4,A
1781611481203,-12924.645878192483,25295.734263557264,4926.975370845208,4,A
1781611481225,-3433.6534800169884,13158.313643777272,936.8230179558566,4,A
1781611481246,576.6814252483856,10848.910316056063,445.60345483527044,4,A
1781611481268,-308.7171901998138,7764.350740943212,-4845.072823365142,4,A
1781611481289,1037.4092115675844,5808.386531203683,-7880.970779044829,4,A
1781611481311,1249.7446261320847,3189.7239752485034,-10288.751916308029,4,A
1781611481333,2992.497556991663,2707.7615416371204,-8931.858532933951,4,A
1781611481354,1245.738297555396,5535.274485490567,-5368.503505378881,4,A
1781611481376,-3377.5648799433466,7137.799577248415,-1076.3719128662178,4,A
1781611481397,1253.7509547087734,32797.278725037766,1673.652362636736,4,A
1781611481419,-2191.691621243496,9644.004232027606,5402.089374519218,4,A
1781611481440,5292.130160010968,8965.240471358242,1891.0774151655198,4,A
1781611481462,-17367.664269740235,32797.278725037766,13362.2621309897,4,A
1781611481484,-8617.842658252146,17487.942839052863,1142.1689008997082,4,A
1781611481506,-2255.7928784705146,14351.170666965445,948.9021875407891,4,A
1781611481527,-1787.0524349979387,10728.419707653216,-1084.424692589506,4,A
1781611481548,-589.1601905680218,8266.394942621737,-6081.174510889895,4,A
1781611481569,1498.1369978867833,5105.5246488537505,-8947.964092380527,4,A
1781611481591,2740.0988566602755,4029.141880454995,-9145.25719560109,4,A
1781611481613,3308.997514550069,2896.5301614682453,-8682.222361512015,4,A
1781611481635,2391.54827048836,4081.3544774295615,-7490.410962465347,4,A
1781611481657,-2460.115635881638,8182.051516739744,2064.2121792162184,4,A
1781611481678,16269.470460137965,32797.278725037766,32651.689360661407,4,A
1781611481700,-17191.385812365934,12375.124689158774,361.04926774074335,4,A
1781611481721,4983.6428596059395,14708.626138560554,9190.922234326363,4,A
1781611481743,-10713.152503860329,26709.49073548399,7487.759322850887,4,A
1781611481765,-4655.5836959070375,14037.895085118045,-1072.3455230045736,4,A
1781611481786,-825.5335765926542,12363.075628318491,-911.2899285388078,4,A
1781611481808,-1154.0525198811263,8804.586326821114,-6270.41483438717,4,A
1781611481829,-1174.0841627645698,8306.558478756018,-6443.549598437869,4,A
1781611481851,-981.7803910835129,6382.725097923914,-8352.058392857194,4,A
1781611481872,-460.95767611398384,6073.465869689944,-8629.87929331064,4,A
1781611481894,516.5864965980553,6033.302333555662,-6028.831442688521,4,A
1781611481916,-1410.4575487892023,7270.339246491545,-3850.5545275390364,4,A
1781611481938,6037.307275275063,32797.278725037766,32651.689360661407,4,A
1781611481959,-13998.34193674505,12154.225240420225,763.6882539051583,4,A
1781611481980,8296.876592527482,3217.8384505425006,4427.703028001334,4,A
1781611482002,-9342.988130632797,32797.278725037766,11832.233983564924,4,A
1781611482024,-8117.0515861660615,19299.318318708978,1657.5468031901594,4,A
1781611482046,-2728.5396505197796,15515.91321485962,1122.0369515914874,4,A
1781611482067,-2844.7231792437515,13463.556518397814,-488.5189930661721,4,A
1781611482088,-4250.94450966148,11182.267665970603,-4136.428207715771,4,A
1781611482111,-1194.1158056480133,7800.497923464066,-6306.652343141967,4,A
1781611482132,288.2257677268003,6137.727527504795,-7740.047133887284,4,A
1781611482153,2724.0735423535207,4956.919565156907,-8629.87929331064,4,A
1781611482176,3449.219014734173,4695.856580284075,-5477.216031643273,4,A
1781611482197,-1358.3752772922494,5844.533713724537,-1317.9553045648668,4,A
1781611482218,-9146.678030375053,19223.007600053843,9517.059813119538,4,A
1781611482241,-12712.310463627982,11310.790981600305,5639.646376356222,4,A
1781611482261,2491.7064849055773,7772.383448170069,-548.9148409908344,4,A
1781611482283,-15717.056896144495,32797.278725037766,10890.058755940194,4,A
1781611482304,-6546.570784104097,15596.240287128183,-335.5161783236944,4,A
1781611482326,-3033.0206223481196,15620.338408808753,848.2424409996853,4,A
1781611482348,-4050.628080827046,11901.194962774249,-2928.511249222526,4,A
1781611482369,-1831.1220493415142,10109.901251185276,-4245.140733980163,4,A
1781611482391,452.4852393710364,7459.10786632267,-6914.6372122502335,4,A
1781611482412,1582.2698979972456,5711.9940444814065,-8517.140377184603,4,A
1781611482434,2876.314028267691,5314.375036752016,-8424.533410366788,4,A
1781611482456,3633.5101292618524,3547.1794468436124,-6834.109415017351,4,A
1781611482478,1313.8458833591037,5149.704538601461,-2227.9194132964444,4,A
1781611482499,-5573.032939968746,14869.280283097682,5635.619986494578,4,A
1781611482521,-32507.579961046777,24620.98685650133,5365.851865764421,4,A
1781611482543,-1274.2423771817869,11447.347004456862,6795.2202666480935,4,A
1781611482564,4274.522701532042,13668.390552682653,6432.84517910012,4,A
1781611482585,-14178.62672269604,32797.278725037766,10797.451789122379,4,A
1781611482607,-6181.994883625426,15580.174872674472,-363.70090735520347,4,A
1781611482628,-2608.349793219119,14323.056191671447,2478.9303349655656,4,A
1781611482651,-2812.672550630242,11041.695289500616,-3830.422578230816,4,A
1781611482672,-2896.8054507407046,9748.429425976738,-5296.0284878692855,4,A
1781611482694,-845.5652194760976,8282.460357075448,-6898.531652803657,4,A
1781611482715,-116.4134185187569,6945.014603803861,-8114.501391020191,4,A
1781611482736,1814.6369554451894,5487.078242129428,-7204.537282288613,4,A
1781611482759,1570.2509122671795,6262.234489521069,-4462.565786508947,4,A
1781611482780,-2948.8877222376573,11997.587449496525,1794.4440584860604,4,A
1781611482801,-10801.29173254748,26866.128526407687,9134.552776263345,4,A
1781611482824,-12163.443448621632,16632.459519392658,10664.580923688121,4,A
1781611482844,981.3206114939428,13146.264582936987,3022.4929662875256,4,A
1781611482867,-10144.253845970536,31601.409436639526,10479.366990052491,4,A
1781611482888,-4587.476110103329,17291.141511994883,1162.300850207929,4,A
1781611482909,1361.921826279368,12170.290654873937,908.6382889243475,4,A
1781611482931,1137.5674259848015,7543.4512922046615,-3830.422578230816,4,A
1781611482952,3.7764387819036527,6627.7226683430345,-8448.691749536654,4,A
1781611482974,11.789095935281024,6165.842002798792,-8839.251566116136,4,A
1781611482996,-80.35646132855874,6643.788082796747,-7434.041504402329,4,A
1781611483017,833.0864541564615,5728.059458935119,-6214.045376324152,4,A
1781611483038,-937.7107767399374,6997.227200778428,-2107.12771744712,4,A
1781611483061,-9026.488173074391,17343.354108969448,8091.717802097509,4,A
1781611483082,-16894.91749769097,13981.66613453005,19635.377535431286,4,A
1781611483104,-3401.602851403479,15612.305701581896,-2312.4736003909716,4,A
1781611483124,-6526.539141220653,30794.122360340458,13309.919062788327,4,A
1781611483147,-4226.906538201348,18383.58969484735,4133.776568101311,4,A
1781611483168,-3173.2421225322237,15447.63520343134,-379.80646680178006,4,A
1781611483190,668.8269825122254,8872.864338249392,-2984.8807072855443,4,A
1781611483211,552.6434537882535,7595.663889179228,-5879.855017807688,4,A
1781611483233,1057.440854451028,6892.802006829295,-6431.470428852936,4,A
1781611483254,-256.6349187028609,6764.278691199593,-8182.950018668141,4,A
1781611483275,316.2700677636211,6093.547637757085,-7901.10272835305,4,A
1781611483297,1113.5294545246695,4780.2000061660665,-5436.952133026831,4,A
1781611483319,-1134.020876997683,7744.2689728760715,344.94370829416675,4,A
1781611483341,-13561.652121885983,30621.419154963045,12126.160443464947,4,A
1781611483363,-17712.20852733546,21717.163193992747,9529.138982704471,4,A
1781611483384,143.99793896600764,9547.611745305328,-3612.9975257020315,4,A
1781611483406,-5332.653225367425,32797.278725037766,14566.152699621302,4,A
1781611483427,-4903.976067661735,21227.16805315451,5551.065799400051,4,A
1781611483449,-5324.640568214048,19110.549698877854,2120.5816372792365,4,A
1781611483471,-2031.4384781759484,12266.683141596213,-9.378599530518379,4,A
1781611483494,-1742.982820654363,9704.249536229028,-3939.1351044952075,4,A
1781611483514,35.82706739541313,7370.74808682725,-5751.010542235074,4,A
1781611483535,1730.504055334727,7282.388307331829,-6133.517579091269,4,A
1781611483557,708.8902682791122,7057.472504979851,-7393.777605785887,4,A
1781611483579,1722.4913981813495,6169.858356412221,-7293.117859244784,4,A
1781611483599,1185.6433689050657,5266.178793390878,-8078.263882265393,4,A
1781611483622,-649.255119218352,6595.591839435609,-4430.354667615794,4,A
1781611483643,-10256.431046117817,18287.19720812507,6432.84517910012,4,A
1781611483665,-21606.359903876863,32797.278725037766,32651.689360661407,4,A
1781611483688,-11382.209376167339,17118.43830661747,5490.669951475389,4,A
1781611483709,-8064.969314669108,28396.35925312383,9939.830748592174,4,A
1781611483732,-4988.108967772198,18475.9658279562,4234.436314642415,4,A
1781611483753,-3798.2293804956585,16624.426812165802,2128.6344170025245,4,A
1781611483775,-2035.444806752637,10579.814623956374,-1732.673460314214,4,A
1781611483796,-1466.546148862844,8844.749862955396,-5614.113286939174,4,A
1781611483817,692.8649539723575,6704.03338699817,-7083.745586439288,4,A
1781611483839,1093.497811641226,6507.232059940188,-8050.0791532338835,4,A
1781611483861,1345.896511972613,6591.575485822181,-7872.917999321541,4,A
1781611483882,1454.0673835432076,6832.556702627872,-6487.839886915954,4,A
1781611483904,-324.74250450656854,8017.381018589188,-2783.561214203337,4,A
1781611483926,-7407.9314280921635,18737.02881282903,4918.92259112192,4,A
1781611483948,-14050.424208242002,30420.601474291638,9126.499996540057,4,A
1781611483969,-11173.880290179526,29846.262907571407,10692.76565271963,4,A
1781611483991,-7395.912442362098,32797.278725037766,12436.192462811547,4,A
1781611484012,-5849.469611760265,25287.70155633041,6807.2994362330255,4,A
1781611484034,-2468.1282930350153,16218.775097209553,2430.613656625836,4,A
1781611484055,-589.1601905680218,11740.540818237121,-1479.0108990306328,4,A
1781611484076,244.15615338322476,8410.983672705152,-5324.213216900795,4,A
1781611484099,240.1498248065361,6515.264767167045,-7603.149878591384,4,A
1781611484120,464.50422510110246,6302.3980256553505,-8372.190342165415,4,A
1781611484141,256.1751391132908,5932.893493219957,-8662.090412203794,4,A
1781611484163,1450.061054966519,5286.260561458019,-5763.089711820007,4,A
1781611484184,-1646.8309348138346,10788.66501185464,252.3367414763513,4,A
1781611484206,-8085.000957552552,21174.95545617994,5712.1213938658175,4,A
1781611484227,-10625.013275173176,32797.278725037766,19083.762124386038,4,A
1781611484249,-7187.583356374286,15576.158519061042,5474.564392028812,4,A
1781611484271,-5040.191239269151,30733.877056139037,10704.844822304563,4,A
1781611484292,-2271.8181927772694,16869.424382584923,3570.08198747113,4,A
1781611484313,-2063.4891067894578,13893.30635503463,-432.149535003154,4,A
1781611484336,-729.3816907521257,9764.49484043045,-3782.1058998910858,4,A
1781611484357,-1214.1474485314566,8302.54212514259,-5751.010542235074,4,A
1781611484379,-56.318489868426624,6675.918911704172,-7325.328978137937,4,A
1781611484399,-597.1728477213991,6206.005538933075,-8195.029188253073,4,A
1781611484421,71.8840245856113,6736.1642159055955,-5469.163251919985,4,A
1781611484443,-2736.552307673157,9318.679589339921,14.779739639346515,4,A
1781611484466,5308.155474317723,32797.278725037766,32651.689360661407,4,A
1781611484487,-10649.05124663331,15929.597637042723,8405.776211305754,4,A
1781611484509,2487.7001563288886,21877.817338529876,11405.436658230645,4,A
1781611484531,-7099.444127687135,25010.573157003862,9343.925049068841,4,A
1781611484552,-4054.6344094037345,16275.004047797547,1146.1952907613525,4,A
1781611484574,-368.8121188501441,11728.491757396836,-939.4746575703168,4,A
1781611484594,59.865038855545244,8836.717155728538,-2988.907097147189,4,A
1781611484616,1193.656026058443,7302.47007539897,-5376.556285102169,4,A
1781611484638,2639.9406422430584,5711.9940444814065,-6495.892666639243,4,A
1781611484660,1594.2888837273117,5402.734816247436,-7490.410962465347,4,A
1781611484681,1129.554768831424,5458.963766835431,-5283.9493182843535,4,A
1781611484703,-2648.413078986006,9017.453068332808,1444.1481405230195,4,A
1781611484725,-10388.639889148544,32797.278725037766,32651.689360661407,4,A
1781611484746,-13209.09520713738,17596.384386615424,5317.535187424691,4,A
1781611484767,-701.3373907153049,11961.440266975671,1452.2009202463078,4,A
1781611484789,-10088.165245896893,26721.539796324272,6199.314567124759,4,A
1781611484811,-5897.54555468053,15720.747249144457,453.65623455855877,4,A
1781611484833,-1887.2106494151558,12065.865460924804,-1362.2455930429524,4,A
1781611484854,957.2826400338107,7435.0097446421005,-3580.7864068088784,4,A
1781611484875,905.2003685368578,7567.549413885231,-5034.313146862416,4,A
1781611484897,957.2826400338107,6165.842002798792,-6214.045376324152,4,A
1781611484918,-88.3691184819361,6061.41680884966,-5702.693863895345,4,A
1781611484939,-569.1285476845783,7137.799577248415,-2888.2473506060846,4,A
1781611484962,-3501.761065820696,9921.13263135415,2656.091488877908,4,A
1781611484983,-20837.144817152635,24436.23459028363,22490.087947336986,4,A
1781611485005,-9751.633645455044,12033.734632017378,2893.648490714913,4,A
1781611485027,-817.5209194392768,32797.278725037766,14244.041510689769,4,A
1781611485048,-7492.064328202626,20789.385509290834,5498.722731198677,4,A
1781611485070,-3593.9066230845356,13632.2433701618,904.6118990627034,4,A
1781611485091,304.25108203355506,9732.364011523026,409.3659460804731,4,A
1781611485113,392.3903107207061,7274.355600104973,-4832.993653780209,4,A
1781611485134,1850.6939126353875,6009.204211875093,-5767.116101681651,4,A
1781611485156,1594.2888837273117,5318.391390365444,-6507.971836224175,4,A
1781611485177,484.53586798454586,5981.089736581096,-5541.638269429579,4,A
1781611485199,-168.4956900157098,7214.11029590355,-2839.930672266355,4,A
1781611485221,-5264.5456395637175,11644.148331514843,3022.4929662875256,4,A
1781611485243,-32507.579961046777,32797.278725037766,-424.0967552798657,4,A
1781611485264,-12920.639549615793,12949.463255879005,2362.1650289778854,4,A
1781611485286,4975.630202452562,27697.513724387325,13483.053826839026,4,A
1781611485308,-10657.063903786686,25376.06133582583,6666.37579107548,4,A
1781611485329,-5993.697440521058,14664.446248812843,-480.4662133428838,4,A
1781611485351,-436.91970465385174,9310.646882113066,-2815.77233309649,4,A
1781611485372,696.8712825490462,6888.785653215867,-4917.547840874736,4,A
1781611485393,781.0041826595086,7282.388307331829,-5650.350795693971,4,A
1781611485414,797.0294969662633,5189.868074735742,-7252.853960628342,4,A
1781611485436,424.4409393342156,6334.528854562776,-5545.664659291223,4,A
1781611485458,-673.2930906784842,7503.28775607038,-3145.9363017513106,4,A
1781611485480,-2984.9446794278556,8993.354946652238,2861.43737182176,4,A
1781611485502,-27223.2325683944,13347.082263608398,22071.343401725997,4,A
1781611485524,-3766.178751882149,8864.831631022536,4476.019706341063,4,A
1781611485545,-1474.558806016221,18584.40737551876,3940.509854742392,4,A
1781611485566,-12748.36742081818,32797.278725037766,9194.948624188008,4,A
1781611485588,-5937.608840447417,14873.29663671111,344.94370829416675,4,A
1781611485610,-1466.546148862844,10535.634734208663,-1587.7234252950248,4,A
1781611485631,-753.4196622122579,9117.861908668512,-2755.376485171828,4,A
1781611485653,-797.4892765558334,8563.605110015422,-4696.096398484307,4,A
1781611485674,-489.00197615080464,6973.129079097858,-6455.628768022801,4,A
1781611485696,-472.9766618440499,7579.598474725515,-5996.620323795368,4,A
1781611485717,-645.2487906416634,7756.318033716356,-2759.402875033472,4,A
1781611485739,-3822.2673519557907,12700.44933184646,3235.8916289546655,4,A
1781611485762,-32507.579961046777,32797.278725037766,12126.160443464947,4,A
1781611485782,-7391.906113785409,13680.439613522936,4983.344828908226,4,A
1781611485804,51.852381702167875,32797.278725037766,13732.689998260963,4,A
1781611485826,-7103.450456263824,21705.114133152463,5333.640746871267,4,A
1781611485847,-3269.394008372752,14572.070115703995,-271.09394053738805,4,A
1781611485868,1061.4471830277166,9571.709866985899,-1326.008084288155,4,A
1781611485890,-184.52100432246453,8198.116931193457,-4188.7712759171445,4,A
1781611485912,929.2383399969899,7599.680242792657,-4675.964449176087,4,A
1781611485933,304.25108203355506,7081.57062666042,-5348.37155607066,4,A
1781611485954,-837.5525623227202,7768.36709455664,-5412.793793856967,4,A
1781611485977,-785.4702908257673,8406.967319091722,-2533.9250427814,4,A
1781611485997,83.90301031567735,14953.623708979674,3453.31668148345,4,A
1781611486019,-32507.579961046777,29701.674177487992,7983.005275833118,4,A
1781611486041,-8722.007201246051,14736.74061385455,679.1340668106311,4,A
1781611486062,-4154.792623820951,31894.603250419783,9589.534830629134,4,A
1781611486084,-7139.507413454022,21319.544186263356,5655.751935802799,4,A
1781611486106,-5717.2607687295385,16070.17001351271,530.1576419297976,4,A
1781611486128,-1186.103148494636,10318.75163908354,-2421.1861266553638,4,A
1781611486149,772.9915255061312,8419.016379932007,-2715.1125865553863,4,A
1781611486171,1482.1116835800285,6864.687531535297,-5050.418706308993,4,A
1781611486192,1233.71931182533,5374.620340953439,-6813.97746570913,4,A
1781611486213,1590.282555150623,6109.613052210798,-4289.431022458249,4,A
1781611486235,364.3460106838853,7238.208417584119,-601.2579091922082,4,A
1781611486258,-4335.077409771942,16849.34261451778,7020.698098900166,4,A
1781611486279,-18445.36665686949,24062.71370423481,19607.192806399777,4,A
1781611486301,-2303.868821390779,14760.83873553512,2652.065099016264,4,A
1781611486322,-8613.836329675458,32797.278725037766,8111.84975140573,4,A
1781611486344,-6610.672041331116,18226.95190392365,3123.1527128286293,4,A
1781611486365,-3706.0838232318188,14045.927792344903,1041.5091543586045,4,A
1781611486387,-769.4449765190126,10138.015726479272,-722.0496050415327,4,A
1781611486408,-1474.558806016221,9523.51362362476,-3516.3641690225722,4,A
1781611486430,388.3839821440174,6864.687531535297,-6371.0745809282735,4,A
1781611486452,1345.896511972613,6491.166645486476,-5980.514764348791,4,A
1781611486473,1982.9027556661142,6422.888634058197,-3818.3434086458833,4,A
1781611486495,500.5611822913006,9310.646882113066,-1636.0401036347546,4,A
1781611486517,-3930.438223526385,16122.382610487277,5885.256157916516,4,A
1781611486538,-25712.846694982767,9880.969095219869,12718.039753126637,4,A
1781611486560,-1154.0525198811263,14519.857518729428,3320.4458160491927,4,A
1781611486582,-9875.829831332392,32797.278725037766,10221.678038907265,4,A
1781611486603,-6282.153098042643,17512.040960733433,1653.5204133285151,4,A
1781611486624,-1706.9258634641649,11551.772198405995,-649.574587531938,4,A
1781611486646,220.11818192309266,7631.811071700082,-2976.8279275622563,4,A
1781611486668,-649.255119218352,8635.89947505713,-5122.893723818587,4,A
1781611486689,993.3395972240089,6298.381672041923,-5823.485559744669,4,A
1781611486710,488.54219656123456,5880.680896245391,-6254.309274940593,4,A
1781611486732,512.5801680213667,7190.012174222981,-3254.6488280157023,4,A
1781611486753,-2003.3941781391277,9780.560254884163,993.1924760188747,4,A
1781611486776,-32507.579961046777,32797.278725037766,12146.292392773168,4,A
1781611486798,-12107.354848547991,13612.161602094659,4584.7322326054555,4,A
1781611486819,2163.187541617105,8125.822566151749,4125.723788378023,4,A
1781611486841,-10757.222118203903,32797.278725037766,9170.790285018142,4,A
1781611486862,-7335.817513711768,18965.960968794436,3272.129137709463,4,A
1781611486884,-5268.551968140406,16716.802945274652,2833.252642790251,4,A
1781611486905,-2968.919365121101,12776.760050501594,-89.90639676340136,4,A
1781611486927,-1871.185335108401,9680.15141454846,-3266.727997600635,4,A
1781611486949,873.1497399233483,8041.479140269757,-4357.879650106199,4,A
1781611486969,528.6054823281214,7949.103007160909,-5791.274440851516,4,A
1781611486992,1165.6117260216224,7053.456151366422,-5505.400760674782,4,A
1781611487013,873.1497399233483,7113.701455567845,-3033.1973856252744,4,A
1781611487034,-2452.1029787282605,10290.637163789545,518.0784723448651,4,A
1781611487056,-6802.975813012173,19797.346166774074,8180.298379053681,4,A
1781611487078,-9895.861474215837,30440.683242358777,10882.005976216906,4,A
1781611487099,-9639.45644530776,29167.499146902042,7793.764952335842,4,A
1781611487121,-3569.8686516244034,23219.27944541489,8506.435957846857,4,A
1781611487142,-2239.76756416376,19704.970033665224,5204.796271298655,4,A
1781611487164,-1827.1157207648255,15331.160948641924,1834.7079571025017,4,A
1781611487185,-821.5272480159655,10957.351863618624,-834.7885211675689,4,A
1781611487207,-368.8121188501441,8314.591185982874,-3794.1850694760183,4,A
1781611487229,-48.305832715049256,7547.46764581809,-5296.0284878692855,4,A
1781611487251,148.0042675426963,7206.077588676694,-5340.318776347372,4,A
1781611487273,-593.1665191447104,7410.911622961531,-3983.4253929732936,4,A
1781611487294,-3998.5458093300927,11499.559601431429,1560.9134465106997,4,A
1781611487316,13352.863256308603,32797.278725037766,32651.689360661407,4,A
1781611487338,-18549.531199863395,17568.269911321426,2901.7012704382014,4,A
1781611487359,-1250.204405721655,22910.02021718092,10310.258615863437,4,A
1781611487380,-8629.861643982213,23978.37027835282,7338.782897970053,4,A
1781611487402,-3221.318065452488,15290.99741250764,2245.399722990205,4,A
1781611487423,-633.2298049115973,11579.886673699993,123.49226590373854,4,A
1781611487445,-20.26153267822846,9178.107212869936,-2203.7610741265794,4,A
1781611487467,-501.0209618808707,9218.270749004218,-3556.6280676390134,4,A
1781611487489,19.801753088658394,7884.8413493460575,-5094.708994787078,4,A
1781611487509,-641.2424620649747,8234.264113714311,-5428.899353303543,4,A
1781611487532,-400.86274746365353,8350.738368503728,-3995.5045625582256,4,A
1781611487553,-541.0842476477575,6977.145432711287,-2332.605549699192,4,A
1781611487575,-4282.99513827499,15961.72846595015,5595.356087878137,4,A
1781611487597,-22247.37247614705,10740.468768493502,10382.73363337303,4,A
1781611487618,1113.5294545246695,12222.503251848504,3759.322310968405,4,A
1781611487640,-3465.7041086304976,32797.278725037766,12786.488380774588,4,A
1781611487662,-9202.766630448694,23653.045635665138,7052.909217793319,4,A
1781611487683,-4952.052010582,16620.410458552375,2772.8567948655887,4,A
1781611487704,-3117.153522458582,12865.119829997015,1013.3244253270955,4,A
1781611487727,-2255.7928784705146,10503.503905301239,-3753.9211708595767,4,A
1781611487748,-1282.2550343351643,9238.352517071358,-4990.022858384331,4,A
1781611487769,-1037.8689911571546,9326.712296566779,-5396.68823441039,4,A
1781611487792,-192.5336614758419,7844.677813211776,-6507.971836224175,4,A
1781611487813,1446.0547263898302,6097.563991370514,-5912.066136700841,4,A
1781611487834,676.8396396656027,7499.271402456951,-3125.8043524430896,4,A
1781611487855,672.8333110889141,7326.5681970795395,71.1491977023646,4,A
1781611487878,-4054.6344094037345,15760.91078527874,8973.497181797578,4,A
1781611487899,-14751.531709162522,3450.7869601213356,6541.557705364512,4,A
1781611487921,2792.1811281572286,9656.05329286789,3493.580580099891,4,A
1781611487942,-2263.805535623892,32797.278725037766,12665.696684925264,4,A
1781611487963,-11093.753718645754,23359.851821884877,4069.3543303150045,4,A
1781611487986,-5216.469696643453,13993.715195370336,985.1396962955864,4,A
1781611488007,-2756.5839505566005,11969.472974202528,163.75616452018002,4,A
1781611488028,-1803.0777493046933,10511.536612528094,-3335.1766252485854,4,A
1781611488049,-897.6474909730505,8435.08179438572,-5179.263181881605,4,A
1781611488071,-617.2044906048426,8105.740798084608,-6354.969021481697,4,A
1781611488093,-156.47670428564376,7704.105436741789,-6874.373313633792,4,A
1781611488114,1582.2698979972456,5483.061888516,-5344.345166209016,4,A
1781611488136,436.45992506428166,5671.830508347125,-2050.758259384102,4,A
1781611488158,-4066.6533951338006,13925.437183942056,7427.363474926225,4,A
1781611488179,-10472.772789259006,32797.278725037766,13728.663608399318,4,A
1781611488202,-9266.867887675713,13106.101046802705,1935.3677036436056,4,A
1781611488222,4354.649273065816,26295.806313300884,13007.939823165016,4,A
1781611488245,-7844.621242951231,26665.31084573628,10402.865582681252,4,A
1781611488266,-4543.406495759754,15419.520728137344,1258.9342068873884,4,A
1781611488288,-2171.6599783600523,10848.910316056063,-1334.0608640114433,4,A
1781611488309,-96.38177563531347,7057.472504979851,-4583.357482358271,4,A
1781611488331,-436.91970465385174,8057.54455472347,-6516.024615947463,4,A
1781611488352,71.8840245856113,5816.41923843054,-8094.36944171197,4,A
1781611488374,428.44726791090426,5820.435592043968,-5581.90216804602,4,A
1781611488396,-236.60327581941746,5924.860785993101,-1825.2804271320294,4,A
1781611488417,-3557.8496658943372,14049.94414595833,6090.602040860367,4,A
1781611488439,-31770.41550293606,12190.372422941078,20980.19174922043,4,A
1781611488461,-4903.976067661735,10760.550536560642,1532.7287174791907,4,A
1781611488482,-509.03361903424803,32797.278725037766,14127.27620470209,4,A
1781611488504,-8882.2603443136,21182.988163406797,5168.5587625438575,4,A
1781611488525,-5388.741825441067,16600.328690485232,1730.021820699754,4,A
1781611488547,-1630.80562050708,11463.412418910575,59.07002811743215,4,A
1781611488569,-2428.0650072681283,10395.062357738678,-2070.8902086923226,4,A
1781611488590,-1234.1790914149,9856.8709735393,-4128.375427992482,4,A
1781611488612,-857.5842052061637,8635.89947505713,-5992.593933933724,4,A
1781611488633,728.9219111625557,6840.589409854729,-6520.051005809107,4,A
1781611488655,1586.2762265739343,6029.285979942234,-5247.711809529556,4,A
1781611488676,-789.476619402456,9182.123566483364,-1362.2455930429524,4,A
1781611488698,-5168.393753723189,16343.282059225827,6650.270231628904,4,A
1781611488720,-32507.579961046777,32533.203474954866,15315.061213887113,4,A
1781611488742,-6959.222627503031,14455.595860914578,4286.779382843789,4,A
1781611488763,2643.946970819747,32797.278725037766,16410.23925625432,4,A
1781611488785,-5316.62791106067,22231.256456511557,8204.456718223546,4,A
1781611488807,-1931.2802637587313,14961.65641620653,1883.0246354422316,4,A
1781611488828,115.95363892918684,9503.43185555762,-1213.2691681621188,4,A
1781611488850,-985.7867196602016,8864.831631022536,-3943.161494356852,4,A
1781611488871,-977.7740625068242,7571.565767498659,-6983.0858398981845,4,A
1781611488892,-1334.3373058321172,7298.453721785542,-7659.519336654402,4,A
1781611488915,-480.98931899742723,6330.512500949349,-6914.6372122502335,4,A
1781611488936,-404.86907604034224,6418.872280444768,-3270.754387462279,4,A
1781611488958,-2484.1536073417697,13094.051985962422,4222.357145057482,4,A
1781611488980,-32507.579961046777,16242.873218890123,23508.764582332955,4,A
1781611489001,-11842.937162486538,13154.297290163844,5808.754750545277,4,A
1781611489023,4254.4910586485985,19066.36980913014,8973.497181797578,4,A
1781611489044,-8253.266757773476,26195.39747296518,8917.12772373456,4,A
1781611489066,-3718.102808961885,15190.588572171937,1146.1952907613525,4,A
1781611489087,-505.02729045755933,11768.655293531117,397.28677649554066,4,A
1781611489109,-1017.8373482737111,9053.600250853662,-3910.9503754636985,4,A
