timestamp,ax,ay,az,label,subject_id
1781599008644,620.7510395919612,-16229.345745676797,357.02287787909916,3,A
1781599008646,608.7320538618951,-16462.29425525563,441.5770649736263,3,A
1781599008646,332.2953820703758,-16578.768510045047,1057.614713805181,3,A
1781599008648,921.2256828436125,-16297.623757105077,465.73540414349117,3,A
1781599008649,889.1750542301031,-16313.68917155879,566.3951506845949,3,A
1781599008651,700.8776111257349,-16482.376023322773,715.3715755654284,3,A
1781599008652,608.7320538618951,-16675.160996767325,594.579879716104,3,A
1781599008653,372.35866783726266,-16574.75215643162,449.6298446969146,3,A
1781599008654,200.08653903964924,-16434.179779961636,477.8145737284236,3,A
1781599008655,-60.32481844511531,-16285.574696264792,699.2660161188518,3,A
1781599008657,156.0169246960737,-16301.640110718505,570.421540546239,3,A
1781599008661,484.53586798454586,-16598.85027811219,554.3159810996625,3,A
1781599008669,740.9408968926217,-16482.376023322773,276.4950806462162,3,A
1781599008681,833.0864541564615,-16610.899338952473,55.043638255788004,3,A
1781599008715,288.2257677268003,-16634.997460633043,481.8409635900678,3,A
1781599008733,524.5991537514327,-16514.5068522302,71.1491977023646,3,A
1781599008738,793.0231683895746,-16534.588620297338,-85.88000690175721,3,A
1781599008745,600.7193967085177,-16671.144643153897,183.88811382840078,3,A
1781599008748,941.257325727056,-15875.906627695118,361.04926774074335,3,A
1781599008750,813.054811273018,-16691.22641122104,159.7297746585359,3,A
1781599008752,1101.5104687946034,-17012.534700295295,-283.1731101223205,3,A
1781599008753,1381.9534691628114,-16313.68917155879,-488.5189930661721,3,A
1781599008754,1357.9154977026792,-16333.77093962593,-492.54538292781626,3,A
1781599008754,2095.079955813397,-15719.268836771418,-1011.9496750799115,3,A
1781599008754,2479.687499175511,-16402.04895105421,-762.3135036579743,3,A
1781599008754,1586.2762265739343,-15891.97204214883,634.8437783325454,3,A
1781599008754,1257.757283285462,-15642.958118116283,1532.7287174791907,3,A
1781599008755,901.1940399601691,-14815.589273750074,1597.150955265497,3,A
1781599008755,272.20045342004556,-15803.61226265341,1504.5439884476816,3,A
1781599008755,-833.5462337460316,-17450.317244158967,1693.7843119449567,3,A
1781599008755,-1158.058848457815,-18450.389293902586,1411.9370216298662,3,A
1781599008756,-436.91970465385174,-18984.564324488536,675.107676948987,3,A
1781599008756,-1446.5145059794004,-17546.70973088124,1407.910631768222,3,A
1781599008756,-1971.343549525618,-15992.380882484535,1790.4176686244161,3,A
1781599008756,-1843.1410350715803,-14928.047174926065,2072.2649589395064,3,A
1781599008757,-573.134876261267,-15229.273695933178,1870.9454658572993,3,A
1781599008757,1157.599068868245,-15490.336680806011,1585.0717856805645,3,A
1781599008757,1794.605312561746,-16667.12828954047,1935.3677036436056,3,A
1781599008758,1466.0863692732737,-18353.99680718031,2430.613656625836,3,A
1781599008758,805.0421541196407,-16996.46928584158,1790.4176686244161,3,A
1781599008759,468.5105536777911,-14964.194357446919,-106.01195620997795,3,A
1781599008759,596.713068131829,-16341.803646852788,-2187.655514680003,3,A
1781599008759,1221.700326095264,-20000.701788685867,-4192.797665778789,3,A
1781599008759,6922.705890723263,-20707.58002464923,-8247.372256454446,3,A
1781599008760,4951.59223099243,-14582.64076417124,-5175.236792019961,3,A
1781599008760,-933.7044481632487,-9815.229025031978,401.3131663571848,3,A
1781599008760,-6602.6593841777385,-6076.003810930332,3980.7737533588333,3,A
1781599008760,-7584.209885466466,-9349.332005874308,6871.721674019333,3,A
1781599008760,-6370.292326729795,-14353.708608205832,6187.235397539826,3,A
1781599008760,989.3332686473202,-20727.661792716368,1009.2980354654513,3,A
1781599008762,5973.206018048045,-23065.179595731577,-2429.238906378652,3,A
1781599008762,6357.813561410158,-24193.774961104897,-1116.6358114826594,3,A
1781599008762,2848.26972823087,-20530.86046565839,2019.9218907381328,3,A
1781599008762,-204.552647205908,-14719.196787027799,3219.786069508089,3,A
1781599008763,-1017.8373482737111,-12498.15323880201,3332.524985634125,3,A
1781599008763,-212.56530435928534,-14755.343969548652,2168.898315618966,3,A
1781599008763,1385.9597977395001,-16739.422654582177,618.7382188859689,3,A
1781599008764,1249.7446261320847,-17145.074369538423,695.2396262572076,3,A
1781599008764,-476.9829904207386,-16884.01138466559,1814.5760077942812,3,A
1781599008764,-1819.103063611448,-16695.242764834467,3054.704085180679,3,A
1781599008765,-1755.001806384429,-17386.055586344115,3231.8652390930215,3,A
1781599008765,-981.7803910835129,-17124.992601471284,2853.3845920984713,3,A
1781599008765,532.6118109048101,-16217.296684836514,1653.5204133285151,3,A
1781599008766,1033.4028829908957,-15522.467509713437,868.3743903079061,3,A
1781599008766,572.6750966716969,-16337.787293239358,296.6270299544369,3,A
1781599008766,43.83972454879051,-17133.02530869814,-468.38704375795135,3,A
1781599008766,-1662.8562491205894,-19494.641233393915,-750.2343340730417,3,A
1781599008766,3581.4278577648993,-20876.266876413214,-5392.661844548746,3,A
1781599008766,2463.6621848687564,-17076.796358110143,-4265.272683288384,3,A
1781599008767,-2015.4131638691936,-12160.779535274041,-206.67170275108168,3,A
1781599008767,-4699.653310250613,-8630.40470907066,3312.3930363259046,3,A
1781599008767,-4335.077409771942,-8409.505260332111,3731.137581936896,3,A
1781599008767,-2820.6852077836193,-11871.602075107212,2970.149898086152,3,A
1781599008767,1077.4724973344712,-17482.448073066393,856.2952207229737,3,A
1781599008767,2816.219099617361,-18815.87747272455,-593.20512946892,3,A
1781599008767,1782.5863268316798,-19044.809628689956,-118.0911257949104,3,A
1781599008767,200.08653903964924,-19257.67637020165,1017.3508151887396,3,A
1781599008767,-1178.0904913412585,-18631.125206506855,2197.083044650475,3,A
1781599008768,-1887.2106494151558,-18165.228187349185,2760.777625280656,3,A
1781599008768,-2071.501763942835,-18819.89382633798,3457.343071345094,3,A
1781599008768,-1730.963834924297,-18719.484986002273,3392.9208335587873,3,A
1781599008768,-1113.9892341142395,-16277.541989037936,2797.0151340354532,3,A
1781599008768,-1009.8246911203337,-14313.54507207155,2672.197048324485,3,A
1781599008768,-96.38177563531347,-13803.468163166172,1730.021820699754,3,A
1781599008768,1482.1116835800285,-14695.09866534723,707.3187958421402,3,A
1781599008768,1766.5610125249252,-16205.247623996229,1291.1453257805417,3,A
1781599008768,1121.5421116780467,-17141.058015924995,2140.713586587457,3,A
1781599008769,504.5675108679893,-17221.385088193558,2478.9303349655656,3,A
1781599008769,500.5611822913006,-17124.992601471284,2168.898315618966,3,A
1781599008769,-172.50201859239849,-16570.73580281819,2015.8955008764885,3,A
1781599008769,-152.47037570895506,-17663.18398567066,437.5506751119822,3,A
1781599008769,4923.547930955609,-20779.874389690936,-4172.665716470568,3,A
1781599008769,7243.212176858357,-19659.311731544472,-4768.5714159939025,3,A
1781599008769,1750.5356982181704,-15020.423308034913,-210.69809261272582,3,A
1781599008769,-2524.2168931086567,-10706.859527213035,2672.197048324485,3,A
1781599008769,-2219.7359212803167,-10963.90615847244,2096.4232981093714,3,A
1781599008771,1606.3078694573778,-12867.657771237402,-1225.3483377470513,3,A
1781599008771,3425.181043274041,-15538.53292416715,-2952.6695883923912,3,A
1781599008771,1265.7699404388395,-17904.16520247635,-1120.6622013443034,3,A
1781599008789,-1911.2486208752878,-18711.452278775418,638.8701681941895,3,A
1781599008811,-3850.3116519926116,-18345.964099953453,1283.0925460572535,3,A
1781599008831,-3093.11555099845,-17076.796358110143,123.49226590373854,3,A
1781599008854,-3481.7294229372524,-16225.32939206337,948.9021875407891,3,A
1781599008876,-4411.197652729027,-15144.930270051187,2748.6984556957236,3,A
1781599008897,-2351.9447643110434,-14960.17800383349,2776.8831847272327,3,A
1781599008918,712.8965968558009,-16438.196133575064,2003.816331291556,3,A
1781599008941,2984.4848998382854,-16980.40387138787,2040.0538400463533,3,A
1781599008962,3537.358243421324,-17988.508628358344,2019.9218907381328,3,A
1781599008984,3096.6620999855686,-18072.852054240335,1516.6231580326141,3,A
1781599009005,288.2257677268003,-17036.63282197586,2458.798385657345,3,A
1781599009026,-897.6474909730505,-16446.22884080192,1677.67875249838,3,A
1781599009048,-1566.704363280061,-16157.05138063509,900.5855092010593,3,A
1781599009070,-2027.4321495992597,-15908.037456602542,844.2160511380412,3,A
1781599009092,-2247.7802213171376,-15920.086517442827,1246.8550373024561,3,A
1781599009113,-1750.9954778077404,-15530.500216940292,989.1660861572306,3,A
1781599009135,-1394.4322344824475,-15578.696460301431,1069.6938833901136,3,A
1781599009157,-1995.3815209857503,-16739.422654582177,1899.1301948888083,3,A
1781599009178,-949.7297624700034,-18944.400788354254,316.7589792626577,3,A
1781599009200,4490.864444673231,-21900.4370478374,-4450.486616924015,3,A
1781599009222,3717.6430293723147,-18221.457137937177,-3766.000340444509,3,A
1781599009243,-2019.4194924458823,-13558.470592747051,618.7382188859689,3,A
1781599009264,-4367.128038385452,-11819.389478132645,2792.988744173809,3,A
1781599009286,-3742.140780422017,-12204.95942502175,2289.690011468291,3,A
1781599009307,-208.55897578259666,-14618.787946692093,-528.7828916826136,3,A
1781599009330,2647.953299396436,-15655.007178956566,-1656.1720529429754,3,A
1781599009351,3248.902585899739,-14960.17800383349,-1297.823355256646,3,A
1781599009372,2018.9597128563123,-15490.336680806011,1448.1745303846635,3,A
1781599009393,664.8206539355367,-17016.551053908723,3803.6125994464905,3,A
1781599009415,1285.8015833222828,-19205.463773227086,3545.923648301265,3,A
1781599009437,3052.592485641993,-21065.035496244338,924.7438483709242,3,A
1781599009458,2603.8836850528605,-21928.5515231314,-387.8592465250684,3,A
1781599009480,244.15615338322476,-20619.220245153807,-33.536938700383274,3,A
1781599009503,-2135.6030211698544,-17149.09072315185,727.4507451503608,3,A
1781599009523,-3101.1282081518275,-13341.58749762193,956.9549672640774,3,A
1781599009545,-2564.2801788755437,-11702.915223343227,1081.773052975046,3,A
1781599009567,-1522.6347489364855,-12136.681413593471,1367.6467331517806,3,A
1781599009588,103.93465319912079,-14590.673471398097,1516.6231580326141,3,A
1781599009610,412.42195360414956,-17012.534700295295,3046.6513054573907,3,A
1781599009631,2307.4153703778975,-19229.561894907656,1222.696698132591,3,A
1781599009653,5544.528860342355,-18422.27481860859,-1201.1899985771865,3,A
1781599009674,4703.199859237731,-16000.413589711392,-126.1439055181987,3,A
1781599009696,-1518.6284203597968,-17040.64917558929,5027.635117386312,3,A
1781599009719,-861.5905337828524,-19426.363221965636,3630.477835395792,3,A
1781599009740,7187.1235767847165,-21330.114834730597,-4692.070008622663,3,A
1781599009761,9562.876422761108,-19193.414712386802,-6576.420463872125,3,A
1781599009784,1502.1433264634718,-13992.236782997295,-1289.7705755333577,3,A
1781599009806,-4775.773553207698,-10686.777759145894,3111.073543243697,3,A
1781599009827,-4250.94450966148,-9220.808690244605,1633.3884640202944,3,A
1781599009847,-1105.976576960862,-10401.616652592493,-2139.3388363402732,3,A
1781599009870,1622.3331837641324,-16586.801217271906,-3379.466913726671,3,A
1781599009891,-3145.1978224954028,-18972.51526364825,1045.5355442202485,3,A
1781599009912,-8133.076900472816,-18277.686088525174,5816.807530268565,3,A
1781599009934,-3513.780051550762,-18888.17183776626,2535.2997930285837,3,A
1781599009956,592.7067395551404,-19338.003442470217,-452.28148431137475,3,A
1781599009978,1005.3585829540749,-17972.44321390463,-267.0675506757439,3,A
1781599009999,-2131.5966925931657,-16365.901768533357,2933.9123893313545,3,A
1781599010021,-2500.1789216485245,-15377.878779630022,3553.9764280245536,3,A
1781599010042,-104.39443278869085,-15197.142867025754,1379.725902736713,3,A
1781599010064,-657.2677763717294,-15426.07502299116,1589.0981755422088,3,A
1781599010085,1518.1686407702266,-16120.904198114236,-146.27585482641945,3,A
1781599010107,776.9978540828199,-16968.354810547582,832.1368815531088,3,A
1781599010129,-1382.4132487523814,-18084.901115080622,2945.991558916287,3,A
1781599010150,-2191.691621243496,-18016.623103652342,2841.3054225135393,3,A
1781599010173,-1406.4512202125136,-17088.84541895043,1134.11612117642,3,A
1781599010194,240.1498248065361,-15707.219775931133,-1092.4774723127944,3,A
1781599010215,-885.6285052429845,-15144.930270051187,208.04645299826566,3,A
1781599010237,-2512.1979073785906,-15341.731597109168,1794.4440584860604,3,A
1781599010259,-913.6728052798053,-16651.062875086755,469.76179400513536,3,A
1781599010280,2018.9597128563123,-18603.010731212857,-1740.7262400375025,3,A
1781599010302,1418.0104263530095,-18856.041008858832,-1656.1720529429754,3,A
1781599010323,336.3017106470645,-17598.92232785581,-915.3163184004519,3,A
1781599010345,-344.77414739001193,-15695.170715090848,-347.5953479086269,3,A
1781599010367,-2928.8560793542138,-13381.75103375621,1903.1565847504523,3,A
1781599010388,-4222.9002096246595,-11943.89644014892,2422.5608769025475,3,A
1781599010410,-168.4956900157098,-14257.316121483556,-565.0204004374109,3,A
1781599010431,2018.9597128563123,-16068.69160113967,-1052.213573696353,3,A
1781599010453,1658.3901409543307,-16108.855137273953,107.38670645716194,3,A
1781599010474,1317.8522119357924,-15787.546848199698,997.2188658805188,3,A
1781599010496,1782.5863268316798,-16181.14950231566,969.0341368490098,3,A
1781599010518,4058.180958390853,-16675.160996767325,-609.3106889154966,3,A
1781599010540,3024.5481856051724,-16920.158567186445,352.996488017455,3,A
1781599010561,196.08021046296054,-17257.53227071441,2833.252642790251,3,A
1781599010582,-1654.843591967212,-18040.72122533291,3304.340256602616,3,A
1781599010604,700.8776111257349,-19358.085210537356,554.3159810996625,3,A
1781599010625,612.7383824385838,-18506.61824449058,397.28677649554066,3,A
1781599010648,-2195.6979498201845,-16667.12828954047,2329.9539100847323,3,A
1781599010669,-3862.3306377226777,-15791.563201813125,3445.2639017601614,3,A
1781599010691,-1041.875319733843,-16173.116795088803,1508.5703783093259,3,A
1781599010713,929.2383399969899,-16205.247623996229,981.1133064339423,3,A
1781599010734,-1033.862662580466,-15076.652258622908,2676.223438186129,3,A
1781599010755,-1045.8816483105318,-14984.27612551406,2656.091488877908,3,A
1781599010777,925.2320114203012,-15594.761874755144,618.7382188859689,3,A
1781599010799,3220.858285862918,-17237.450502647273,-504.6245525127487,3,A
1781599010820,2427.605227678558,-18297.767856592312,807.9785423832438,3,A
1781599010842,1650.3774838009533,-19783.818693560745,989.1660861572306,3,A
1781599010863,6369.832547140224,-20832.0869866655,-4015.6365118664467,3,A
1781599010893,5408.31368873494,-16747.455361809032,-4442.433837200726,3,A
1781599010915,111.94731035249815,-12787.330698968839,-1442.7733902758355,3,A
1781599010929,-2536.235878838723,-10686.777759145894,-126.1439055181987,3,A
1781599010950,-5929.596183294039,-9911.621511754254,2627.9067598463994,3,A
1781599010972,-9054.532473111212,-11429.80317763011,5027.635117386312,3,A
1781599010994,-6582.6277412942945,-16177.13314870223,3324.472205910837,3,A
1781599011015,-2784.6282505934214,-19599.06642734305,711.3451857037843,3,A
1781599011037,1602.3015408806891,-21739.782903300274,-1313.9289147032225,3,A
1781599011059,2295.3963846478314,-20751.75991439694,224.15201244484226,3,A
1781599011080,-1242.1917485682775,-17124.992601471284,3968.694583773901,3,A
1781599011100,156.0169246960737,-15357.797011562881,2559.4581321984488,3,A
1781599011123,1682.4281124144627,-15024.439661648341,1794.4440584860604,3,A
1781599011145,1738.5167124881043,-15594.761874755144,1041.5091543586045,3,A
1781599011166,1177.6307117516883,-16478.359669709345,429.49789538869385,3,A
1781599011188,-1730.963834924297,-16157.05138063509,1866.919075995655,3,A
1781599011210,-2676.457379022827,-17064.74729726986,1874.9718557189433,3,A
1781599011231,-3581.8876373544695,-16787.618897943314,1935.3677036436056,3,A
1781599011254,-2544.2485359921,-16803.68431239703,1347.5147838435598,3,A
1781599011275,-2880.78013643395,-15502.385741646296,1589.0981755422088,3,A
1781599011296,-1045.8816483105318,-15205.17557425261,876.4271700311944,3,A
1781599011317,-404.86907604034224,-15968.282760803966,1013.3244253270955,3,A
1781599011340,-1342.3499629854946,-15940.168285509968,2213.1886040970517,3,A
1781599011361,-2007.4005067158164,-17727.445643485513,1935.3677036436056,3,A
1781599011383,95.92199604574341,-20137.257811542426,-1326.008084288155,3,A
1781599011405,4667.142902047533,-21538.965222628864,-5453.057692473408,3,A
1781599011426,256.1751391132908,-17502.52984113353,-1173.0052695456775,3,A
1781599011448,-4907.982396238424,-12586.51301829743,3586.1875469177066,3,A
1781599011469,-5384.735496864378,-9505.969796798006,3912.3251257108827,3,A
1781599011491,-949.7297624700034,-10827.350135615881,1029.429984773672,3,A
1781599011512,2940.4152854947097,-14498.297338289249,-154.32863454970774,3,A
1781599011534,2788.17479958054,-18807.844765497695,1866.919075995655,3,A
1781599011556,2231.2951274208126,-19229.561894907656,2160.845535895678,3,A
1781599011577,1502.1433264634718,-18683.33780348142,2293.716401329935,3,A
1781599011599,3881.902501016551,-16655.079228700186,-1330.0344741497993,3,A
1781599011620,3537.358243421324,-16514.5068522302,-975.7121663251141,3,A
1781599011642,-1919.2612780286652,-17369.990171890404,2084.344128524439,3,A
1781599011664,-1698.9132063107875,-17378.02287911726,1621.3092944353618,3,A
1781599011686,1498.1369978867833,-17855.968959115213,-718.0232151798886,3,A
1781599011707,-673.2930906784842,-15912.053810215972,940.8494078175007,3,A
1781599011729,-1983.3625352556842,-12642.741968885424,1810.549617932637,3,A
1781599011751,-2331.9131214276,-13437.979984344205,3280.181917432751,3,A
1781599011773,-1799.0714207280046,-16875.978677438736,3260.0499681245306,3,A
1781599011794,2335.4596704147184,-20253.732066331842,844.2160511380412,3,A
1781599011815,3817.801243789532,-19554.88653759534,-210.69809261272582,3,A
1781599011836,2663.9786137031906,-15908.037456602542,-158.35502441135188,3,A
1781599011859,2784.168471003851,-13867.729820981021,-444.2287045880865,3,A
1781599011880,1522.1749693469153,-14578.624410557812,514.0520824832209,3,A
1781599011900,-56.318489868426624,-15916.0701638294,1198.5383589627263,3,A
1781599011923,139.99161038931894,-18486.53647642344,212.0728428599098,3,A
1781599011945,4783.326430771505,-22338.219591701072,-3906.9239856020545,3,A
1781599011966,4154.332844231381,-20362.173613894403,-2940.5904188074587,3,A
1781599011988,-1867.1790065317123,-14518.37910635639,1572.9926160956322,3,A
1781599012010,-3718.102808961885,-10542.18902906248,2152.7927561723895,3,A
1781599012031,-1009.8246911203337,-10257.027922509078,-516.7037220976812,3,A
1781599012053,1606.3078694573778,-13819.533577619884,-2199.7346842649354,3,A
1781599012074,468.5105536777911,-15851.808506014548,-967.6593866018259,3,A
1781599012097,-2123.5840354397883,-17458.349951385822,1504.5439884476816,3,A
1781599012118,-2400.0207072313074,-19739.638803813035,1536.755107340835,3,A
1781599012139,-292.69187589305903,-21342.163895570884,-81.85361704011306,3,A
1781599012161,-677.2994192551728,-18952.43349558111,119.4658760420944,3,A
1781599012183,-1117.9955626909282,-17028.600114749006,860.3216105846178,3,A
1781599012204,-1839.1347064948916,-15578.696460301431,1025.403594912028,3,A
1781599012226,1858.706569788765,-14550.509935263814,-2119.2068870320522,3,A
1781599012248,1802.6179697151233,-14727.229494254654,-1040.1344041114205,3,A
1781599012269,-1258.217062875032,-13196.998767538515,1524.6759377559024,3,A
1781599012291,-3702.07749465513,-15233.290049546607,3111.073543243697,3,A
1781599012312,-2183.6789640901184,-18542.765427011433,1746.1273801463306,3,A
1781599012333,119.95996750587553,-19635.213609863902,-218.7508723360141,3,A
1781599012355,-597.1728477213991,-18305.80056381917,276.4950806462162,3,A
1781599012376,-817.5209194392768,-17281.63039239498,679.1340668106311,3,A
1781599012398,1470.0926978499624,-15602.794581982,-1007.9232852182673,3,A
1781599012421,1898.7698555556517,-15012.390600808056,-641.5218078086498,3,A
1781599012442,-376.82477600352144,-14666.984190053232,1122.0369515914874,3,A
1781599012464,-2948.8877222376573,-14735.262201481512,2354.112249254597,3,A
1781599012484,-3870.343294876055,-17040.64917558929,2148.7663663107455,3,A
1781599012506,-609.1918334514652,-18261.62067407146,-935.4482677086726,3,A
1781599012528,-24.267861254917143,-20213.56853019756,-1539.406746955295,3,A
1781599012549,1466.0863692732737,-21555.03063708258,-2823.8251128197785,3,A
1781599012571,3937.9911010901924,-19944.472838097874,-3657.2878141801175,3,A
1781599012593,1305.8332262057263,-15377.878779630022,-959.6066068785375,3,A
1781599012614,-2075.508092519524,-11249.067265025842,1440.1217506613752,3,A
1781599012636,-1037.8689911571546,-11253.08361863927,1162.300850207929,3,A
1781599012657,2756.1241709670303,-12124.632352753188,-730.1023847648211,3,A
1781599012679,2844.2633996541813,-13381.75103375621,514.0520824832209,3,A
1781599012701,2199.244498807303,-16157.05138063509,1194.511969101082,3,A
1781599012722,1746.5293696414817,-18856.041008858832,1170.3536299312173,3,A
1781599012744,2403.567256218426,-20607.171184313524,163.75616452018002,3,A
1781599012765,1710.4724124512836,-20000.701788685867,312.7325894010135,3,A
1781599012786,829.0801255797728,-16727.373593741893,429.49789538869385,3,A
1781599012808,532.6118109048101,-15490.336680806011,216.09923272155396,3,A
1781599012830,644.7890110520933,-15454.189498285157,95.30753687222949,3,A
1781599012851,1113.5294545246695,-17137.041662311567,-246.93560136752316,3,A
1781599012873,540.6244680581875,-16317.705525172218,481.8409635900678,3,A
1781599012896,-1230.1727628382114,-16771.553483489603,2229.294163543628,3,A
1781599012916,-3369.552222789969,-16237.378452903655,3719.0584123519634,3,A
1781599012939,-2844.7231792437515,-16221.313038449942,3525.7916989930445,3,A
1781599012961,-1791.0587635746274,-16478.359669709345,2301.7691810532233,3,A
1781599012981,59.865038855545244,-15835.743091560835,856.2952207229737,3,A
1781599013003,460.49789652441376,-16008.446296938248,1037.4827644969603,3,A
1781599013025,184.0612247328945,-15317.633475428598,2197.083044650475,3,A
1781599013046,-324.74250450656854,-15578.696460301431,2333.9802999463764,3,A
1781599013068,1377.9471405861227,-18289.735149365457,578.4743202695273,3,A
1781599013089,5564.560503225799,-21306.01671305003,-4237.087954256875,3,A
1781599013111,4979.63653102925,-19727.58974297275,-4051.8740206212437,3,A
1781599013132,-376.82477600352144,-15522.467509713437,-198.6189230277934,3,A
1781599013154,-3473.716765783875,-12642.741968885424,1617.2829045737178,3,A
1781599013176,-2676.457379022827,-11988.076329896629,167.78255438182418,3,A
1781599013197,-84.36278990524742,-11851.52030704007,-2574.188941397841,3,A
1781599013219,-909.6664767031166,-13450.02904518449,-1696.4359515594167,3,A
1781599013241,-2664.438393292761,-17357.941111050117,2285.6636216066463,3,A
1781599013263,-3978.5141664466496,-20201.519469357278,5373.904645487709,3,A
1781599013284,304.25108203355506,-19655.29537793104,1854.8399064107225,3,A
1781599013305,1770.5673411016137,-18382.111282474307,-9.378599530518379,3,A
1781599013327,460.49789652441376,-17068.763650883287,1065.6674935284693,3,A
1781599013349,-1763.0144635378065,-16506.47414500334,3014.4401865642376,3,A
1781599013370,-1939.2929209121087,-15426.07502299116,2575.5636916450253,3,A
1781599013392,-785.4702908257673,-15578.696460301431,1830.6815672408577,3,A
1781599013414,460.49789652441376,-15767.465080132555,723.4243552887167,3,A
1781599013436,1518.1686407702266,-17550.726084494672,115.43948618045023,3,A
1781599013457,1854.7002412120762,-18036.70487171948,46.99085853249971,3,A
1781599013479,-280.672890162993,-16647.046521473327,1738.0746004230423,3,A
1781599013500,-2067.4954353661465,-15755.416019292272,3251.997188401242,3,A
1781599013522,-1454.5271631327778,-15811.644969880266,2342.0330796696644,3,A
1781599013543,-1402.444891635825,-16502.457791389912,2076.291348801151,3,A
1781599013565,-2159.640992629986,-15530.500216940292,1210.6175285476588,3,A
1781599013587,-1186.103148494636,-16815.73337323731,1017.3508151887396,3,A
1781599013608,-248.6222615494835,-17518.595255587246,123.49226590373854,3,A
1781599013630,-224.5842900893514,-18992.59703171539,284.5478603695045,3,A
1781599013653,1810.6306268685007,-20538.893172885244,-1978.2832418745072,3,A
1781599013675,3016.535528451795,-17743.511057939224,-3133.857132166378,3,A
1781599013696,240.1498248065361,-13546.421531906766,-754.260723934686,3,A
1781599013718,-3233.3370511825538,-10313.256873097072,2962.0971183628635,3,A
1781599013739,-4807.824181821207,-9903.588804527399,5047.767066694532,3,A
1781599013762,-1210.1411199547679,-12132.665059980043,1846.7871266874342,3,A
1781599013782,1858.706569788765,-16313.68917155879,1045.5355442202485,3,A
1781599013804,2399.560927641737,-18458.422001129442,1693.7843119449567,3,A
1781599013826,2147.1622273103503,-19864.145765829307,2450.7456059340566,3,A
1781599013847,2780.1621424271625,-18281.7024421386,1468.3064796928843,3,A
1781599013868,3232.877271592984,-16928.1912744133,590.5534898544598,3,A
1781599013891,1726.4977267580382,-16237.378452903655,1532.7287174791907,3,A
1781599013912,364.3460106838853,-15976.315468030822,2189.030264927187,3,A
1781599013934,-965.7550767767582,-16080.740661979955,2261.5052824367817,3,A
1781599013956,-909.6664767031166,-16667.12828954047,1786.3912787627721,3,A
1781599013977,-88.3691184819361,-17221.385088193558,1109.957782006555,3,A
1781599013999,-497.014633304182,-17133.02530869814,1283.0925460572535,3,A
1781599014021,-204.552647205908,-16365.901768533357,1383.7522925983571,3,A
1781599014042,-376.82477600352144,-15426.07502299116,2015.8955008764885,3,A
1781599014064,63.87136743223393,-15683.121654250564,2108.502467694304,3,A
1781599014085,1165.6117260216224,-16614.9156925659,2172.9247054806106,3,A
1781599014107,877.156068500037,-16783.602544329886,2426.5872667641916,3,A
1781599014128,352.32702495381926,-16884.01138466559,2048.106619769642,3,A
1781599014150,135.98528181263026,-16867.94597021188,1617.2829045737178,3,A
1781599014172,-68.33747559849267,-17285.64674600841,675.107676948987,3,A
1781599014208,2071.041984353265,-18916.286313060256,-1833.333206855318,3,A
1781599014215,3529.3455862679466,-18655.22332818742,-2332.605549699192,3,A
1781599014236,1578.263569420557,-15056.570490555767,-762.3135036579743,3,A
1781599014258,-472.9766618440499,-13281.342193420505,586.5270999928157,3,A
1781599014280,-1126.0082198443056,-12184.87765695461,787.8465930750231,3,A
1781599014301,-1378.4069201756927,-12506.185946028865,1037.4827644969603,3,A
1781599014323,-1458.5334917094665,-13345.603851235357,775.7674234900907,3,A
1781599014345,-909.6664767031166,-16032.544418618816,-347.5953479086269,3,A
1781599014367,-48.305832715049256,-17663.18398567066,-726.0759949031769,3,A
1781599014388,-957.7424196233808,-18679.32144986799,1089.8258326983344,3,A
1781599014409,-1338.3436344088059,-17815.80542298093,2398.4025377326825,3,A
1781599014431,-1214.1474485314566,-17157.12343037871,2950.017948777931,3,A
1781599014453,464.50422510110246,-17205.319673739847,2587.642861229958,3,A
1781599014474,1349.9028405493018,-17434.251829705252,3054.704085180679,3,A
1781599014495,2279.371070341077,-17699.331168191515,2656.091488877908,3,A
1781599014518,3613.478486378409,-18060.80299340005,2088.3705183860834,3,A
1781599014539,4310.57965872224,-17510.562548360387,731.4771350120051,3,A
1781599014561,2559.814070709285,-16875.978677438736,1142.1689008997082,3,A
1781599014582,352.32702495381926,-16634.997460633043,1818.6023976559252,3,A
1781599014604,-416.8880617704083,-16008.446296938248,1440.1217506613752,3,A
1781599014626,-629.2234763349086,-16373.934475760212,876.4271700311944,3,A
1781599014647,-493.0083047274933,-16944.256688867015,719.3979654270726,3,A
1781599014669,-1398.4385630591362,-16422.130719121353,1991.7371617066237,3,A
1781599014690,-2031.4384781759484,-16606.882985339045,2780.9095745888767,3,A
1781599014712,-981.7803910835129,-16739.422654582177,1915.2357543353849,3,A
1781599014733,87.90933889236604,-17297.695806848697,413.39233594211726,3,A
1781599014755,3537.358243421324,-20828.070633052073,-2622.505619737571,3,A
1781599014777,6137.46548969228,-19269.725431041938,-5352.397945932304,3,A
1781599014798,-961.7487482000695,-14506.330045516104,-613.3370787771407,3,A
1781599014820,-4883.944424778292,-11502.097542671818,2744.6720658340796,3,A
1781599014841,-5080.254525036038,-10297.191458643361,3855.9556676478646,3,A
1781599014863,-3513.780051550762,-11084.396766875287,3413.0527828670083,3,A
1781599014885,-569.1285476845783,-14430.01932686097,1878.9982455805875,3,A
1781599014906,1021.3838972608297,-16442.21248718849,1915.2357543353849,3,A
1781599014928,1934.8268127458498,-17775.64188684665,1504.5439884476816,3,A
1781599014950,2515.744456365709,-18699.403217935134,1786.3912787627721,3,A
1781599014972,1726.4977267580382,-18992.59703171539,2555.4317423368043,3,A
1781599014992,1305.8332262057263,-18370.062221634023,1999.789941429912,3,A
1781599015014,208.0991961930266,-17843.91989827493,2027.974670461421,3,A
1781599015036,-837.5525623227202,-16815.73337323731,1734.048210561398,3,A
1781599015058,-2271.8181927772694,-15478.287619965726,2269.5580621600698,3,A
1781599015080,-3241.349708335931,-14510.346399129532,2712.460946940926,3,A
1781599015101,-2632.387764679251,-13976.171368543583,2591.669251091602,3,A
1781599015122,-256.6349187028609,-14851.736456270928,1343.4883939819156,3,A
1781599015145,688.8586253956688,-16394.016243827355,1625.335684297006,3,A
1781599015166,744.9472254693104,-17365.973818276972,2104.47607783266,3,A
1781599015187,644.7890110520933,-18374.07857524745,2269.5580621600698,3,A
1781599015209,861.1307541932823,-18647.190620960566,2120.5816372792365,3,A
1781599015230,-132.43873282551164,-17145.074369538423,2390.3497580093945,3,A
1781599015252,-1045.8816483105318,-16044.593479459101,2575.5636916450253,3,A
1781599015274,-1162.0651770345037,-15940.168285509968,2422.5608769025475,3,A
1781599015295,-84.36278990524742,-16394.016243827355,1689.7579220833125,3,A
1781599015317,15.795424511969708,-16964.338456934154,1830.6815672408577,3,A
1781599015338,1089.4914830645373,-18036.70487171948,659.0021175024103,3,A
1781599015360,5244.054217090704,-18815.87747272455,-2485.60836444167,3,A
1781599015381,5368.250402968053,-15622.87635004914,-2521.8458731964674,3,A
1781599015403,2207.2571559606804,-13265.276778966794,465.73540414349117,3,A
1781599015425,-973.7677339301355,-12968.066611573107,3380.841663973855,3,A
1781599015446,-773.4513050957013,-14072.56385526586,3074.8360344888997,3,A
1781599015468,1902.7761841323404,-14747.311262321795,-295.25227970725297,3,A
1781599015489,1974.8900985127368,-15510.418448873152,-1442.7733902758355,3,A
1781599015511,368.352339260574,-15972.299114417394,-963.6329967401816,3,A
1781599015533,-2656.4257361393834,-16470.326962482486,1468.3064796928843,3,A
1781599015554,-3870.343294876055,-16149.018673408234,1681.7051423600242,3,A
1781599015576,-5084.260853612726,-17145.074369538423,3143.2846621368503,3,A
1781599015597,-3477.7230943605637,-18940.384434740823,2660.1178787395525,3,A
1781599015619,-1370.3942630223153,-20169.38864044985,2317.8747404998,3,A
1781599015641,51.852381702167875,-18731.53404684256,2313.8483506381554,3,A
1781599015662,572.6750966716969,-18145.146419282042,2805.0679137587417,3,A
1781599015684,1353.9091691259905,-16293.60740349165,2635.9595395696874,3,A
1781599015705,857.1244256165936,-15152.962977278043,2539.3261828902278,3,A
1781599015728,-284.6792187396817,-14996.325186354343,2841.3054225135393,3,A
1781599015749,-116.4134185187569,-15891.97204214883,1609.2301248504295,3,A
1781599015770,-180.51467574577586,-17189.254259286135,924.7438483709242,3,A
1781599015792,-1025.8500054270885,-16996.46928584158,1154.2480704846407,3,A
1781599015814,-2436.0776644215057,-16317.705525172218,1762.232939592907,3,A
1781599015836,-2500.1789216485245,-16506.47414500334,1846.7871266874342,3,A
1781599015857,-1410.4575487892023,-17317.777574915835,1029.429984773672,3,A
1781599015879,-148.4640471322664,-18016.623103652342,-403.964805971645,3,A
1781599015900,1385.9597977395001,-19406.281453898493,-1330.0344741497993,3,A
1781599015922,4290.548015838796,-17964.410506677774,-3564.680847362302,3,A
1781599015943,1710.4724124512836,-14309.528718458123,-1301.8497451182902,3,A
1781599015965,-1294.2740200652304,-10811.284721162168,880.4535598928385,3,A
1781599015986,-2371.9764071944865,-10393.583945365637,2362.1650289778854,3,A
1781599016009,-1558.6917061266836,-10755.055770574174,1613.2565147120736,3,A
1781599016030,-721.3690335987484,-14012.318551064436,969.0341368490098,3,A
1781599016051,180.05489615620579,-17353.92475743669,932.7966280942125,3,A
1781599016072,893.1813828067917,-20366.18996750783,381.1812170489641,3,A
1781599016095,2776.155813850474,-22852.312854219883,-685.8120962867354,3,A
1781599016116,2908.3646568812005,-20068.979800114146,-327.46339860040615,3,A
1781599016138,-148.4640471322664,-16241.394806517083,2084.344128524439,3,A
1781599016159,-288.6855473163704,-14510.346399129532,2011.8691110148443,3,A
1781599016181,-765.4386479423239,-14695.09866534723,2499.062284273786,3,A
1781599016203,-765.4386479423239,-16273.525635424508,2418.5344870409035,3,A
1781599016224,-949.7297624700034,-17872.034373568928,2011.8691110148443,3,A
1781599016246,-505.02729045755933,-18052.770286173196,1190.485579239438,3,A
1781599016269,-765.4386479423239,-17671.216692897517,1468.3064796928843,3,A
1781599016289,-621.2108191815312,-16426.14707273478,1395.8314621832897,3,A
1781599016311,-248.6222615494835,-16181.14950231566,1520.6495478942581,3,A
1781599016332,308.2574106102437,-16771.553483489603,1613.2565147120736,3,A
1781599016354,436.45992506428166,-17213.352380966702,1605.2037349887853,3,A
1781599016383,825.0737970030841,-16594.833924498762,1081.773052975046,3,A
1781599016400,1205.6750117885092,-16598.85027811219,373.12843732567575,3,A
1781599016419,1249.7446261320847,-17257.53227071441,-118.0911257949104,3,A
1781599016440,1458.0737121198963,-17426.219122478396,-383.83285666342425,3,A
1781599016462,877.156068500037,-17562.775145334956,-790.4982326894833,3,A
1781599016484,2119.1179272735294,-19872.178473056167,-1491.090068615565,3,A
1781599016505,3128.712728599078,-16771.553483489603,-2042.7054796608136,3,A
1781599016528,736.934568315933,-13056.426391068528,340.91731843252256,3,A
1781599016549,-669.2867621017955,-11188.821960824418,2056.15939949293,3,A
1781599016570,-444.9323618072291,-12707.003626700274,2036.0274501847093,3,A
1781599016592,716.9029254324896,-13931.991478795873,534.1840317914417,3,A
1781599016613,1998.9280699728688,-15602.794581982,-1273.6650160867812,3,A
1781599016634,364.3460106838853,-16675.160996767325,-814.6565718593481,3,A
1781599016657,-2371.9764071944865,-17631.053156763235,538.2104216530859,3,A
1781599016679,-3702.07749465513,-18129.08100482833,1013.3244253270955,3,A
1781599016700,-3261.3813512193747,-16799.6679587836,711.3451857037843,3,A
1781599016720,-4767.76089605432,-15795.579555426553,2994.3082372560166,3,A
1781599016743,-5104.29249649617,-15530.500216940292,4733.708657486289,3,A
1781599016765,-2119.5777068630996,-17237.450502647273,3819.718158893067,3,A
1781599016787,1490.124340733406,-18510.634598104007,1915.2357543353849,3,A
1781599016808,2435.6178848319355,-19205.463773227086,1927.3149239203171,3,A
1781599016829,1702.4597552979062,-18526.70001255772,2454.7719957957006,3,A
1781599016851,-320.73617592987983,-16430.16342634821,2865.463761683404,3,A
1781599016872,-913.6728052798053,-15522.467509713437,2277.6108418833583,3,A
1781599016895,-1294.2740200652304,-15012.390600808056,2052.133009631286,3,A
1781599016916,-1875.1916636850897,-15502.385741646296,1754.1801598696188,3,A
1781599016938,-1650.8372633905233,-17374.00652550383,952.9285774024332,3,A
1781599016959,-553.1032333778236,-17675.233046510944,-456.3078741730189,3,A
1781599016981,-228.5906186660401,-19566.935598435623,-1330.0344741497993,3,A
1781599017003,3353.0671288936446,-20900.36499809378,-4035.768461174667,3,A
1781599017025,1025.3902258375183,-16755.488069035888,-1897.7554446416243,3,A
1781599017046,-3301.4446369862617,-11915.781964854921,1391.8050723216454,3,A
1781599017067,-4242.931852508103,-10096.37377797195,3046.6513054573907,3,A
1781599017090,-3041.033279501497,-10120.47189965252,2724.5401165258586,3,A
1781599017111,-0.22988979478503244,-14598.706178624952,779.7938133517348,3,A
1781599017132,1954.8584556292933,-16900.076799119302,-299.2786695688971,3,A
1781599017154,3925.9721153601263,-19562.919244822195,-1020.0024548031997,3,A
1781599017175,4314.585987298929,-20322.010077760122,-766.3398935196184,3,A
1781599017197,4546.953044746872,-17815.80542298093,-1177.0316594073215,3,A
1781599017219,3108.6810857156347,-14610.755239465238,-601.2579091922082,3,A
1781599017240,1990.9154128194914,-13891.827942661592,437.5506751119822,3,A
1781599017262,781.0041826595086,-15502.385741646296,1585.0717856805645,3,A
1781599017284,893.1813828067917,-17161.139783992137,1403.884241906578,3,A
1781599017305,793.0231683895746,-18426.291172222016,1351.5411737052038,3,A
1781599017327,-444.9323618072291,-18831.942887178262,1870.9454658572993,3,A
1781599017349,-1206.1347913780792,-18538.749073398005,1782.3648889011279,3,A
1781599017371,-2468.1282930350153,-17434.251829705252,1895.103805027164,3,A
1781599017392,-3409.615508556856,-16116.887844500809,2495.035894412142,3,A
1781599017413,-3738.1344518453284,-15148.946623664615,3094.9679837971203,3,A
1781599017435,-2291.849835660713,-16518.523205843627,2555.4317423368043,3,A
1781599017457,-829.5399051693429,-16879.995031052164,2148.7663663107455,3,A
1781599017478,-124.42607567213427,-16948.273042480443,1556.8870566490555,3,A
1781599017502,857.1244256165936,-17333.84298936955,336.89092857087843,3,A
1781599017521,1401.9851120462547,-17807.772715754076,-407.9911958332891,3,A
1781599017543,2099.086284390086,-19004.646092555675,-1563.56508612516,3,A
1781599017564,3833.8265580962866,-19289.807199109076,-2968.7751478389678,3,A
1781599017586,1870.725555518831,-14819.605627363502,-1479.0108990306328,3,A
1781599017608,-761.4323193656352,-11903.732904014636,844.2160511380412,3,A
1781599017629,-2203.710606973562,-10939.808036791872,1911.2093644737406,3,A
1781599017651,-2179.6726355134297,-10453.82924956706,779.7938133517348,3,A
1781599017672,-1210.1411199547679,-13590.601421654477,-45.61610828531572,3,A
1781599017695,-2796.647236323487,-16438.196133575064,1520.6495478942581,3,A
1781599017716,-3553.8433373176485,-19165.300237092804,1810.549617932637,3,A
1781599017738,-52.31216129173794,-21458.6381503603,-911.2899285388078,3,A
1781599017759,448.4789107943477,-20422.418918095827,-432.149535003154,3,A
1781599017781,-2191.691621243496,-17992.524981971772,2032.001060323065,3,A
1781599017802,-2820.6852077836193,-16128.936905341094,3251.997188401242,3,A
1781599017825,-312.7235187765025,-14996.325186354343,2160.845535895678,3,A
1781599017846,272.20045342004556,-15341.731597109168,3272.129137709463,3,A
1781599017867,1726.4977267580382,-16241.394806517083,2430.613656625836,3,A
1781599017889,2740.0988566602755,-17538.677023654385,1399.8578520449337,3,A
1781599017911,772.9915255061312,-17398.1046471844,2023.9482805997768,3,A
1781599017932,-1097.9639198074847,-15687.138007863992,2056.15939949293,3,A
1781599017954,-2544.2485359921,-16526.555913070482,2027.974670461421,3,A
1781599017976,-2868.7611507038837,-16373.934475760212,1927.3149239203171,3,A
1781599017997,-2996.9636651579217,-15313.61712181517,1943.420483366894,3,A
1781599018019,-2315.887807120845,-14811.572920136647,1883.0246354422316,3,A
1781599018041,-2355.951092887732,-15642.958118116283,2696.3553874943495,3,A
1781599018062,-1274.2423771817869,-15574.680106688003,1532.7287174791907,3,A
1781599018084,-1250.204405721655,-16373.934475760212,1681.7051423600242,3,A
1781599018105,-260.6412472795496,-19558.902891208767,-754.260723934686,3,A
1781599018127,6518.066704477706,-22683.626002455898,-5908.039746839197,3,A
1781599018149,2026.9723700096897,-19876.194826669594,-1680.3303921128402,3,A
1781599018170,-5985.68478336768,-14172.972695601564,3851.9292777862206,3,A
1781599018192,-7828.595928644476,-11321.36163006755,5615.488037186357,3,A
1781599018213,-4587.476110103329,-10662.679637465326,2849.3582022368273,3,A
1781599018235,-2508.191578801902,-12530.284067709434,1331.4092243969833,3,A
1781599018256,-617.2044906048426,-15253.371817613748,755.6354741818699,3,A
1781599018279,-56.318489868426624,-16964.338456934154,1242.828647440812,3,A
1781599018300,1718.4850696046608,-17655.151278443805,920.71745850928,3,A
1781599018322,2491.7064849055773,-17426.219122478396,892.532729477771,3,A
1781599018343,1249.7446261320847,-17683.2657537378,1428.0425810764427,3,A
1781599018364,336.3017106470645,-16546.637681137625,1069.6938833901136,3,A
1781599018386,148.0042675426963,-15422.058669377731,385.2076069106082,3,A
1781599018407,652.8016682054706,-15570.663753074574,-166.40780413464017,3,A
1781599018430,-184.52100432246453,-16566.719449204764,981.1133064339423,3,A
1781599018451,-569.1285476845783,-16506.47414500334,1709.8898713915332,3,A
1781599018472,-645.2487906416634,-16699.259118447895,2164.871925757322,3,A
1781599018494,-24.267861254917143,-17333.84298936955,2221.24138382034,3,A
1781599018515,624.7573681686498,-17297.695806848697,2148.7663663107455,3,A
1781599018537,1293.8142404756602,-17430.235476091824,1395.8314621832897,3,A
1781599018558,1001.3522543773862,-17594.90597424238,1512.5967681709699,3,A
1781599018581,11.789095935281024,-16763.520776262747,2128.6344170025245,3,A
1781599018602,-557.1095619545123,-16434.179779961636,2221.24138382034,3,A
1781599018623,-312.7235187765025,-16827.782434077595,1778.3384990394838,3,A
1781599018645,168.03591042613974,-17048.68188281615,1657.5468031901594,3,A
1781599018668,15.795424511969708,-16606.882985339045,2144.7399764491015,3,A
1781599018689,-801.4956051325221,-16892.044091892447,3103.0207635204088,3,A
1781599018710,-857.5842052061637,-16908.10950634616,2853.3845920984713,3,A
1781599018732,-36.2868469849832,-16233.362099290227,1806.5232280709927,3,A
1781599018753,692.8649539723575,-16329.754586012503,1029.429984773672,3,A
1781599018775,1606.3078694573778,-16538.604973910766,-919.342708262096,3,A
1781599018797,5584.592146109242,-19815.94952246817,-4893.389501704871,3,A
1781599018818,7463.560248576236,-19370.13427137764,-6028.831442688521,3,A
1781599018840,2103.0926129667746,-13715.108383670751,-2401.0541773471427,3,A
1781599018861,-4447.254609919226,-9967.850462342249,2728.566506387503,3,A
1781599018883,-8325.380672153871,-8505.897747054387,6686.507740383701,3,A
1781599018905,-8321.374343577183,-11457.917652924107,6235.5520758795565,3,A
1781599018926,-1426.4828630959569,-16550.654034751053,763.6882539051583,3,A
1781599018948,-172.50201859239849,-19771.76963272046,437.5506751119822,3,A
1781599018970,-1803.0777493046933,-21643.390416577997,2152.7927561723895,3,A
1781599018991,-2944.8813936609686,-19944.472838097874,3634.5042252574362,3,A
1781599019013,-2231.754907010383,-16610.899338952473,3485.527800376603,3,A
1781599019035,-1330.3309772554285,-15072.63590500948,3392.9208335587873,3,A
1781599019056,71.8840245856113,-15345.747950722596,2619.853980123111,3,A
1781599019078,2563.8203992859735,-16442.21248718849,1234.7758677175236,3,A
1781599019099,1405.9914406229434,-16185.165855929088,1637.4148538819386,3,A
1781599019121,-1955.3182352188635,-15671.07259341028,3239.91801881631,3,A
1781599019143,-4186.843252434461,-16120.904198114236,4012.9848722519864,3,A
1781599019164,-3738.1344518453284,-15546.565631394005,2696.3553874943495,3,A
1781599019186,-2692.4826933295813,-15980.33182164425,1605.2037349887853,3,A
1781599019208,-3758.166094728772,-16385.9835366005,3167.443001306715,3,A
1781599019229,-2928.8560793542138,-15924.102871056255,3211.733289784801,3,A
1781599019251,-2071.501763942835,-15562.631045847718,2897.674880576557,3,A
1781599019272,-573.134876261267,-16072.7079547531,1862.8926861340108,3,A
1781599019294,-1414.463877365891,-17711.380229031798,2040.0538400463533,3,A
1781599019316,1305.8332262057263,-21161.427982966616,-1474.9845091689886,3,A
1781599019339,6289.705975606451,-21683.55395271228,-5493.321591089849,3,A
1781599019360,1121.5421116780467,-15984.348175257679,-1386.4039322128174,3,A
1781599019382,-4823.849496127962,-10831.366489229309,2458.798385657345,3,A
1781599019405,-7159.539056337466,-7995.820838149008,4826.315624304105,3,A
1781599019426,-4711.672295980678,-9044.089131253764,3421.1055625902964,3,A
1781599019447,-1041.875319733843,-13686.993908376753,1186.4591893777938,3,A
1781599019469,977.3142829172541,-17402.121000797826,554.3159810996625,3,A
1781599019490,2215.269813114058,-20795.939804144647,-122.11751565655454,3,A
1781599019512,3869.883515286485,-22374.366774221926,-61.72166773189232,3,A
1781599019533,1137.5674259848015,-19338.003442470217,2611.8012003998224,3,A
1781599019555,-721.3690335987484,-16040.577125845673,3211.733289784801,3,A
1781599019577,-1322.318320102051,-15329.682536268883,2495.035894412142,3,A
1781599019598,-1342.3499629854946,-15703.203422317705,1693.7843119449567,3,A
1781599019620,-945.7234338933147,-15944.184639123396,469.76179400513536,3,A
1781599019641,-1322.318320102051,-15771.481433745985,675.107676948987,3,A
1781599019663,-2219.7359212803167,-16221.313038449942,1170.3536299312173,3,A
1781599019684,-1967.3372209489294,-16667.12828954047,1242.828647440812,3,A
1781599019706,-1759.0081349611178,-17671.216692897517,2080.317738662795,3,A
1781599019728,-525.0589333410028,-18827.926533564834,2551.4053524751603,3,A
1781599019750,716.9029254324896,-18530.71636617115,2591.669251091602,3,A
1781599019771,1450.061054966519,-16731.38994735532,2285.6636216066463,3,A
1781599019792,736.934568315933,-15887.955688535401,2623.880369984755,3,A
1781599019815,1165.6117260216224,-16297.623757105077,1363.6203432901364,3,A
1781599019836,1746.5293696414817,-17390.071939957543,-154.32863454970774,3,A
1781599019858,1482.1116835800285,-16691.22641122104,-464.3606538963072,3,A
1781599019879,328.28905349368716,-18301.784210205744,-456.3078741730189,3,A
1781599019901,3076.630457102125,-20747.74356078351,-3069.4348943800715,3,A
1781599019922,1766.5610125249252,-15241.322756773463,-2562.109771812909,3,A
1781599019944,-1614.7803062003252,-11670.784394435801,485.86735345171195,3,A
1781599019965,-3678.039523194998,-9236.874104698318,2539.3261828902278,3,A
1781599019987,-3381.5712085200353,-10453.82924956706,2925.859609608066,3,A
1781599020009,-1746.9891492310517,-15478.287619965726,1947.446873228538,3,A
1781599020032,-1109.9829055375508,-18554.81448785172,960.9813571257215,3,A
1781599020052,-1783.04610642125,-21812.077268341982,646.9229479174779,3,A
1781599020074,-3794.2230519189698,-20305.94466330641,1999.789941429912,3,A
1781599020095,-6093.855654938275,-16060.658893912814,3678.794513735522,3,A
1781599020118,-4487.317895686112,-13602.65048249476,2845.3318123751833,3,A
1781599020139,-2159.640992629986,-13606.66683610819,1629.3620741586503,3,A
1781599020161,-4.236218371473718,-15835.743091560835,2201.109434512119,3,A
1781599020182,965.2952971871881,-18502.60189087715,2788.962354312165,3,A
1781599020204,2992.497556991663,-20060.94709288729,1959.5260428134704,3,A
1781599020225,1454.0673835432076,-20008.734495912722,3368.7624943889227,3,A
1781599020247,-2448.096650151572,-16634.997460633043,4572.653063020523,3,A
1781599020268,-3245.35603691262,-15883.939334921974,3525.7916989930445,3,A
1781599020290,-2183.6789640901184,-14610.755239465238,1532.7287174791907,3,A
1781599020312,-1803.0777493046933,-14723.213140641226,759.661864043514,3,A
1781599020333,-2075.508092519524,-15329.682536268883,514.0520824832209,3,A
1781599020355,-1642.8246062371459,-17072.780004496715,-73.80083731682475,3,A
1781599020377,168.03591042613974,-18795.79570465741,-1003.8968953566232,3,A
1781599020399,2026.9723700096897,-16305.656464331934,-1507.1956280621419,3,A
1781599020420,188.06755330958316,-13020.279208547674,965.0077469873656,3,A
1781599020441,-3313.463622716328,-10393.583945365637,3066.783254765611,3,A
1781599020463,-3858.324309145989,-10590.385272423619,2563.484522060093,3,A
1781599020485,-2988.9510080045443,-13510.274349385913,1371.6731230134246,3,A
1781599020506,-2083.5207496729013,-17205.319673739847,654.9757276407662,3,A
1781599020528,-2416.046021538062,-22354.285006154787,1250.8814271641002,3,A
1781599020550,1005.3585829540749,-23462.798603460968,-810.630181997704,3,A
1781599020571,2275.3647417643883,-21085.117264311477,171.80894424346832,3,A
1781599020593,588.7004109784517,-15642.958118116283,2700.381777355994,3,A
1781599020614,-1502.603106053042,-12486.104177961724,4782.025335826019,3,A
1781599020636,-1222.160105684834,-11293.247154773551,3090.9415939354762,3,A
1781599020658,3208.839300132852,-14815.589273750074,-1382.3775423511731,3,A
1781599020679,3421.174714697352,-17823.838130207787,-1660.1984428046194,3,A
1781599020701,-917.6791338564939,-18213.42443071032,1299.19810550383,3,A
1781599020722,-3537.818023010894,-18301.784210205744,2813.12069348203,3,A
1781599020745,-2548.254864568789,-16811.717019623884,2052.133009631286,3,A
1781599020766,-1570.7106918567497,-16879.995031052164,2305.7955709148673,3,A
1781599020800,-1759.0081349611178,-17566.791498948383,3078.8624243505437,3,A
1781599020809,-1210.1411199547679,-17458.349951385822,3207.7068999231565,3,A
1781599020831,-136.44506140220034,-16430.16342634821,1617.2829045737178,3,A
1781599020852,-180.51467574577586,-15112.799441143761,723.4243552887167,3,A
1781599020874,-889.6348338196731,-15048.53778332891,876.4271700311944,3,A
1781599020896,-721.3690335987484,-15968.282760803966,1109.957782006555,3,A
1781599020917,-689.3184049852389,-17040.64917558929,1564.9398363723437,3,A
1781599020939,1257.757283285462,-17293.679453235265,413.39233594211726,3,A
1781599020960,744.9472254693104,-17699.331168191515,493.9201331750002,3,A
1781599020982,3156.7570286358987,-20245.699359104987,-1938.0193432580656,3,A
1781599021003,4538.940387593495,-19048.825982303384,-3705.604492519847,3,A
1781599021026,901.1940399601691,-13594.617775267905,-1326.008084288155,3,A
1781599021047,-1418.4702059425795,-9955.801401501963,671.0812870873428,3,A
1781599021069,-3826.2736805324794,-10104.406485198808,2849.3582022368273,3,A
1781599021090,-3645.9888945814887,-12425.858873760302,2672.197048324485,3,A
1781599021112,-3305.4509655629504,-15169.028391731756,2168.898315618966,3,A
1781599021134,-3453.6851229004315,-18783.746643817125,1633.3884640202944,3,A
1781599021155,-3065.071250961629,-23137.473960773284,1444.1481405230195,3,A
1781599021177,-2564.2801788755437,-21731.75019607342,1866.919075995655,3,A
1781599021198,-2864.754822127195,-17410.153708024685,3127.179102690274,3,A
1781599021220,-2191.691621243496,-15261.404524840604,3533.8444787163326,3,A
1781599021241,-621.2108191815312,-14590.673471398097,4093.5126694848695,3,A
1781599021263,1149.5864117148676,-14803.540212909791,2120.5816372792365,3,A
1781599021284,1878.7382126722082,-15803.61226265341,1407.910631768222,3,A
1781599021306,1405.9914406229434,-17273.597685168126,771.7410336284465,3,A
1781599021328,1033.4028829908957,-17799.74000852722,167.78255438182418,3,A
1781599021349,-1482.5714631695985,-17743.511057939224,908.6382889243475,3,A
1781599021371,-3866.3369662993664,-18261.62067407146,2587.642861229958,3,A
1781599021393,-4150.786295244263,-17514.57890197382,1464.28008983124,3,A
1781599021414,-2840.7168506670628,-15735.334251225131,791.8729829366672,3,A
1781599021436,-2568.2865074522324,-14907.965406858923,880.4535598928385,3,A
1781599021458,-1270.2360486050982,-15410.009608537448,-178.48697371957263,3,A
1781599021479,468.5105536777911,-15269.437232067461,-718.0232151798886,3,A
1781599021500,813.054811273018,-15181.07745257204,-118.0911257949104,3,A
1781599021522,552.6434537882535,-16108.855137273953,687.1868465339194,3,A
1781599021543,456.49156794772506,-15847.79215240112,1198.5383589627263,3,A
1781599021565,-400.86274746365353,-14831.654688203787,1621.3092944353618,3,A
1781599021587,-1089.9512626541075,-14570.591703330956,715.3715755654284,3,A
1781599021608,216.11185334640396,-15498.369388032866,-597.2315193305641,3,A
1781599021630,103.93465319912079,-15004.3578935812,-951.5538271552492,3,A
1781599021651,-1859.1663493783349,-14875.834577951498,848.2424409996853,3,A
1781599021673,-2656.4257361393834,-17378.02287911726,2406.455317455971,3,A
1781599021694,740.9408968926217,-20137.257811542426,586.5270999928157,3,A
1781599021717,869.1434113466596,-20060.94709288729,1053.588323943537,3,A
1781599021738,-316.72984735319113,-17386.055586344115,2112.528857555948,3,A
1781599021760,-1430.4891916726456,-15285.502646521174,2607.7748105381784,3,A
1781599021781,-1859.1663493783349,-14132.809159467282,2277.6108418833583,3,A
1781599021803,-1466.546148862844,-13229.12959644594,481.8409635900678,3,A
1781599021824,-1662.8562491205894,-15136.89756282433,332.8645387092343,3,A
1781599021846,-2904.8181078940815,-17353.92475743669,1649.4940234668709,3,A
1781599021871,-3185.26110826229,-19482.592172553632,3159.390221583427,3,A
1781599021889,-1606.7676490469478,-20020.78355675301,2648.03870915462,3,A
1781599021910,412.42195360414956,-18028.672164492626,1536.755107340835,3,A
1781599021932,428.44726791090426,-16092.78972282024,2052.133009631286,3,A
1781599021954,143.99793896600764,-14566.575349717526,2144.7399764491015,3,A
1781599021975,288.2257677268003,-11919.798318468349,-202.64531288943752,3,A
1781599021997,2063.029327199888,-15193.126513412324,-206.67170275108168,3,A
1781599022018,1982.9027556661142,-16920.158567186445,67.12280784072045,3,A
1781599022040,2051.010341469822,-18084.901115080622,-230.83004192094657,3,A
1781599022062,1357.9154977026792,-19036.7769214631,-589.1787396072758,3,A
1781599022083,3445.2126861574843,-21808.060914728554,-3238.5432685691258,3,A
1781599022105,5708.788331986591,-19253.660016588223,-5143.025673126808,3,A
1781599022126,1141.5737545614902,-14124.776452240427,-999.870505494979,3,A
1781599022148,-2460.115635881638,-11120.54394939614,2060.1857893545744,3,A
1781599022170,-2468.1282930350153,-10393.583945365637,2708.434557079282,3,A
1781599022191,212.1055247697153,-12184.87765695461,876.4271700311944,3,A
1781599022213,460.49789652441376,-15699.187068704277,236.23118202977471,3,A
1781599022235,740.9408968926217,-17498.513487520104,-915.3163184004519,3,A
1781599022256,-669.2867621017955,-18791.77935104398,-577.0995700223434,3,A
1781599022278,-2047.4637924827032,-18659.239681800853,-891.157979230587,3,A
1781599022300,-4114.729338054065,-17727.445643485513,783.8202032133789,3,A
1781599022322,-5032.178582115774,-15361.81336517631,2438.666436349124,3,A
1781599022343,-3918.419237796319,-15048.53778332891,3211.733289784801,3,A
1781599022365,-1446.5145059794004,-16265.492928197651,3022.4929662875256,3,A
1781599022386,236.1434962298474,-17104.91083340414,3328.498595772481,3,A
1781599022407,1610.3141980340663,-16952.28939609387,2458.798385657345,3,A
1781599022429,2627.9216565129923,-17679.249400124372,755.6354741818699,3,A
1781599022450,2287.383727494454,-17751.54376516608,22.832519362634812,3,A
1781599022472,588.7004109784517,-18008.590396425483,554.3159810996625,3,A
1781599022494,-1166.0715056111924,-17880.067080795783,1037.4827644969603,3,A
1781599022516,-937.7107767399374,-17635.069510376663,-65.74805759353646,3,A
1781599022537,-1142.0335341510604,-15904.021102989114,-605.2842990538525,3,A
1781599022559,-2343.932107157666,-14442.068387701253,-259.0147709524556,3,A
1781599022581,-2852.735836397129,-14421.986619634112,300.6534198160811,3,A
1781599022601,-2760.590279133289,-14899.932699632067,715.3715755654284,3,A
1781599022624,-3441.6661371703653,-14883.867285178354,2277.6108418833583,3,A
1781599022645,-2520.210564531968,-15675.088947023707,2209.1622142354076,3,A
1781599022666,-84.36278990524742,-16181.14950231566,973.0605267106539,3,A
1781599022688,1978.8964270894255,-15538.53292416715,-319.4106188771178,3,A
1781599022709,1474.099026426651,-14634.853361145806,-669.7065368401588,3,A
1781599022731,-697.3310621386163,-16442.21248718849,-118.0911257949104,3,A
1781599022754,-1210.1411199547679,-17916.214263316637,-1559.5386962635157,3,A
1781599022774,-1198.122134224702,-20402.337150028685,-629.4426382237173,3,A
1781599022796,-1426.4828630959569,-19884.22753389645,960.9813571257215,3,A
1781599022818,-865.596862359541,-16181.14950231566,1810.549617932637,3,A
1781599022839,19.801753088658394,-14096.661976946429,3002.361016979305,3,A
1781599022861,1450.061054966519,-14237.234353416416,3904.2723459875942,3,A
1781599022883,3497.294957654437,-14968.210711060347,2575.5636916450253,3,A
1781599022904,5055.756773986335,-15072.63590500948,-287.19949998396464,3,A
1781599022926,4554.96570190025,-15879.922981308546,-2002.441581044372,3,A
1781599022948,2643.946970819747,-17241.4668562607,-2340.6583294224806,3,A
1781599022973,-1378.4069201756927,-17643.10221760352,-468.38704375795135,3,A
1781599023003,-6013.729083404502,-19169.316590706232,3155.363831721783,3,A
1781599023020,-5793.381011686623,-17024.58376113558,2752.7248455573676,3,A
1781599023035,-4932.020367698557,-16570.73580281819,2982.229067671084,3,A
1781599023055,-2396.0143786546187,-16546.637681137625,1532.7287174791907,3,A
1781599023078,-1122.0018912676169,-17141.058015924995,1520.6495478942581,3,A
1781599023099,-1029.8563340037772,-16960.322103320726,2197.083044650475,3,A
1781599023121,-1013.8310196970224,-16839.831494917882,2954.044338639575,3,A
1781599023142,-665.2804335251068,-16458.277901642203,2656.091488877908,3,A
1781599023164,732.9282397392443,-16667.12828954047,1444.1481405230195,3,A
1781599023186,1618.3268551874437,-16948.273042480443,510.0256926215768,3,A
1781599023207,2471.674842022134,-16305.656464331934,-93.93278662504551,3,A
1781599023228,2299.40271322452,-16245.41116013051,-681.7857064250912,3,A
1781599023251,3517.3266005378805,-19888.243887509878,-2441.3180759635843,3,A
1781599023272,2423.5988991018694,-19257.67637020165,-2473.5291948567374,3,A
1781599023293,-2155.6346640532975,-14654.935129212947,204.0200631366215,3,A
1781599023315,-5913.5708689872845,-10718.90858805332,2474.9039451039216,3,A
1781599023337,-4170.817938127706,-10132.520960492804,1593.1245654038528,3,A
1781599023359,-1069.919619770664,-11646.686272755232,-101.9855663483338,3,A
1781599023380,348.32069637713056,-15602.794581982,-93.93278662504551,3,A
1781599023401,79.89668173898868,-18972.51526364825,771.7410336284465,3,A
1781599023423,600.7193967085177,-22053.058485147674,735.5035248736492,3,A
1781599023445,516.5864965980553,-21755.848317753986,1194.511969101082,3,A
1781599023466,-2055.4764496360804,-18076.868407853763,3147.3110519984943,3,A
1781599023488,-2444.090321574883,-15534.51657055372,3787.507039999914,3,A
1781599023510,-1995.3815209857503,-14743.294908708367,4149.882127547888,3,A
1781599023531,-40.29317556167188,-15293.53535374803,3215.759679646445,3,A
1781599023553,1598.2952123040004,-16996.46928584158,1810.549617932637,3,A
1781599023574,2631.927985089681,-17080.81271172357,985.1396962955864,3,A
1781599023596,1273.782597592217,-16691.22641122104,538.2104216530859,3,A
1781599023617,-857.5842052061637,-16703.275472061323,812.004932244888,3,A
1781599023640,-2175.666306936741,-17470.399012226106,469.76179400513536,3,A
1781599023661,-1879.1979922617784,-17430.235476091824,-347.5953479086269,3,A
1781599023683,-1218.1537771081453,-16249.427513743938,-1281.7177958100694,3,A
1781599023704,-1979.3562066789955,-14225.18529257613,-536.8356714059018,3,A
1781599023726,-2416.046021538062,-13474.127166865059,284.5478603695045,3,A
1781599023747,-2720.526993366402,-12602.578432751143,876.4271700311944,3,A
1781599023769,-2684.470036176204,-14538.46087442353,1419.9898013531545,3,A
1781599023791,-1218.1537771081453,-16389.999890213927,1170.3536299312173,3,A
1781599023812,488.54219656123456,-18189.32630902975,723.4243552887167,3,A
1781599023833,1458.0737121198963,-17763.592826006367,276.4950806462162,3,A
1781599023855,103.93465319912079,-15855.824859627975,1568.966226233988,3,A
1781599023877,-925.6917910098713,-15060.586844169195,2193.056654788831,3,A
1781599023899,-16.25520410153977,-16257.460220970795,493.9201331750002,3,A
1781599023921,785.0105112361972,-18189.32630902975,-560.9940105757668,3,A
1781599023943,1430.0294120830756,-18482.520122810012,-1205.2163884388306,3,A
1781599023963,516.5864965980553,-17944.328738610635,-653.6009773935822,3,A
1781599023985,-765.4386479423239,-15791.563201813125,538.2104216530859,3,A
1781599024007,-1642.8246062371459,-14771.409384002365,1677.67875249838,3,A
1781599024028,-1602.761320470259,-14426.00297324754,2362.1650289778854,3,A
1781599024050,-1610.7739776236365,-14932.063528539493,2470.877555242277,3,A
1781599024072,-1422.4765345192682,-15996.397236097962,2273.5844520217142,3,A
1781599024102,-1073.9259483473527,-17924.246970543492,1520.6495478942581,3,A
1781599024132,-1694.9068777340988,-19578.984659275906,1109.957782006555,3,A
1781599024137,-3830.280009109168,-22386.415835062213,2507.1150639970747,3,A
1781599024158,-2984.9446794278556,-22121.33649657595,1568.966226233988,3,A
1781599024180,-2432.071335844817,-17064.74729726986,936.8230179558566,3,A
1781599024202,-1935.28659233542,-13831.582638460168,699.2660161188518,3,A
1781599024223,-1258.217062875032,-12843.559649556833,590.5534898544598,3,A
1781599024245,1502.1433264634718,-14490.264631062391,-1205.2163884388306,3,A
1781599024267,3777.737958022645,-17442.28453693211,-1913.8610040882008,3,A
1781599024288,4086.225258427674,-19570.95195204905,-1418.6150511059705,3,A
1781599024310,2455.649527715379,-20735.694499943227,-685.8120962867354,3,A
1781599024331,-513.0399476109367,-16779.586190716458,91.28114701058534,3,A
1781599024353,-2291.849835660713,-11843.487599813214,328.8381488475901,3,A
1781599024375,-3121.1598510352705,-9570.231454612858,795.8993727983114,3,A
1781599024396,-3189.2674368389785,-10357.436762844784,1585.0717856805645,3,A
1781599024418,-2680.4637075995156,-12815.445174262835,1548.8342769257672,3,A
1781599024440,-1318.3119915253624,-17012.534700295295,1202.5647488243706,3,A
1781599024460,123.96629608256421,-19900.29294835016,-118.0911257949104,3,A
1781599024483,-380.83110458021014,-22024.944009853676,-21.457769115450827,3,A
1781599024504,-2347.9384357343547,-19257.67637020165,719.3979654270726,3,A
1781599024526,-4895.963410508359,-16032.544418618816,2889.622100853269,3,A
1781599024547,-4507.349538569556,-13654.863079469327,3107.047153382053,3,A
1781599024569,-2888.792793587327,-14542.477228036958,3006.387406840949,3,A
1781599024591,-749.4133336355692,-16687.210057607608,2495.035894412142,3,A
1781599024612,-232.59694724272876,-18084.901115080622,2784.935964450521,3,A
1781599024634,27.814410242035763,-18149.16277289547,2289.690011468291,3,A
1781599024655,-380.83110458021014,-17868.018019955496,1693.7843119449567,3,A
1781599024677,-821.5272480159655,-17574.82420617524,1025.403594912028,3,A
1781599024699,-1057.9006340405979,-17068.763650883287,328.8381488475901,3,A
1781599024721,-376.82477600352144,-17120.976247857856,-460.3342640346631,3,A
1781599024742,-400.86274746365353,-16193.198563155944,-259.0147709524556,3,A
1781599024764,-697.3310621386163,-17317.777574915835,731.4771350120051,3,A
1781599024786,2639.9406422430584,-17104.91083340414,-1120.6622013443034,3,A
1781599024807,3176.788671519342,-15305.584414588315,-1028.055234526488,3,A
1781599024829,1462.080040696585,-12988.148379640248,1186.4591893777938,3,A
1781599024850,-460.95767611398384,-10714.892234439892,3441.2375118985174,3,A
1781599024872,-1674.8752348506555,-11666.768040822373,4765.919776379442,3,A
1781599024894,-440.9260332305404,-14911.981760472352,4109.618228931446,3,A
1781599024915,468.5105536777911,-17675.233046510944,2941.965169054643,3,A
1781599024936,781.0041826595086,-19161.283883479377,1572.9926160956322,3,A
1781599024958,35.82706739541313,-18787.762997430553,365.0756576023875,3,A
1781599024980,-1767.0207921144952,-17855.968959115213,332.8645387092343,3,A
1781599025002,-3625.957251698045,-16968.354810547582,1202.5647488243706,3,A
1781599025024,-3934.444552103074,-16843.84784853131,1359.5939534284923,3,A
1781599025046,-4711.672295980678,-17791.70730130036,3453.31668148345,3,A
1781599025068,-2604.3434646424303,-17337.859342982978,3256.0235782628865,3,A
1781599025090,-909.6664767031166,-16028.528065005388,2966.1235082245075,3,A
1781599025110,-629.2234763349086,-15703.203422317705,3622.4250556725037,3,A
1781599025133,67.87769600892261,-15956.233699963681,3183.548560753292,3,A
1781599025155,1570.2509122671795,-16703.275472061323,1488.438429001105,3,A
1781599025176,1229.7129832486412,-16884.01138466559,1061.6411036668253,3,A
1781599025203,-352.78680454338934,-16835.815141304454,1657.5468031901594,3,A
1781599025220,-1354.3689487155607,-16438.196133575064,1830.6815672408577,3,A
1781599025241,-637.236133488286,-16639.01381424647,763.6882539051583,3,A
1781599025263,-216.57163293597404,-17313.761221302408,429.49789538869385,3,A
1781599025284,212.1055247697153,-17116.959894244425,187.9145036900449,3,A
1781599025305,712.8965968558009,-17683.2657537378,139.59782535031513,3,A
1781599025327,2607.890013629549,-17474.415365839533,-1068.3191331429296,3,A
1781599025349,2411.5799133718033,-13996.253136610723,-1676.304002251196,3,A
1781599025370,-20.26153267822846,-11819.389478132645,115.43948618045023,3,A
1781599025392,-2203.710606973562,-11795.291356452075,1645.4676336052269,3,A
1781599025414,-4174.824266704395,-12972.082965186535,2901.7012704382014,3,A
1781599025435,-2608.349793219119,-15695.170715090848,1428.0425810764427,3,A
1781599025457,-1582.7296775868156,-18366.045868020592,667.0548972256986,3,A
1781599025479,-1750.9954778077404,-19490.624879780487,924.7438483709242,3,A
1781599025500,-3854.3179805693003,-19249.643662974795,3264.0763579861746,3,A
1781599025522,-3329.4889370230826,-17217.36873458013,3376.815274112211,3,A
1781599025544,-1354.3689487155607,-16562.703095591336,2797.0151340354532,3,A
1781599025565,276.20678199673426,-16610.899338952473,2297.742791191579,3,A
1781599025586,921.2256828436125,-17040.64917558929,2390.3497580093945,3,A
1781599025608,680.8459682422914,-16920.158567186445,2124.6080271408805,3,A
1781599025630,-709.3500478686823,-17024.58376113558,2180.9774852038986,3,A
1781599025652,-2948.8877222376573,-16518.523205843627,2776.8831847272327,3,A
1781599025674,-3577.8813087777808,-15783.530494586268,2523.220623443651,3,A
1781599025695,-2896.8054507407046,-16100.822430047096,1488.438429001105,3,A
1781599025716,-2223.7422498570054,-16610.899338952473,944.875797679145,3,A
1781599025738,-1350.362620138872,-16610.899338952473,296.6270299544369,3,A
1781599025760,-1017.8373482737111,-16161.06773424852,224.15201244484226,3,A
1781599025781,-941.7171053166261,-15960.250053577109,566.3951506845949,3,A
1781599025803,-725.3753621754371,-15189.110159798896,598.6062695777481,3,A
1781599025824,-1706.9258634641649,-15136.89756282433,1371.6731230134246,3,A
1781599025846,-1799.0714207280046,-15418.042315764304,1343.4883939819156,3,A
1781599025868,-1779.0397778445613,-15024.439661648341,1222.696698132591,3,A
1781599025889,-3004.976322311299,-14626.82065391895,1689.7579220833125,3,A
1781599025911,-3297.438308409573,-14783.458444842649,1661.5731930518034,3,A
1781599025933,-3629.963580274734,-15602.794581982,2422.5608769025475,3,A
1781599025954,-1879.1979922617784,-17281.63039239498,1154.2480704846407,3,A
1781599025976,1598.2952123040004,-18265.63702768489,-866.9996400607221,3,A
1781599025998,2135.143241580284,-18538.749073398005,-500.59816265110453,3,A
1781599026019,821.0674684263954,-17173.18884483242,1246.8550373024561,3,A
1781599026041,-196.5399900525306,-17024.58376113558,2551.4053524751603,3,A
1781599026062,280.2131105734229,-16189.182209542516,3014.4401865642376,3,A
1781599026084,833.0864541564615,-15269.437232067461,1770.2857193161954,3,A
1781599026105,1077.4724973344712,-15148.946623664615,1113.9841718681992,3,A
1781599026127,680.8459682422914,-15136.89756282433,884.4799497544827,3,A
1781599026149,-849.5715480527863,-15743.366958451987,1383.7522925983571,3,A
1781599026171,-1851.1536922249575,-16823.766080464167,1649.4940234668709,3,A
1781599026192,-3045.0396080781857,-18052.770286173196,3002.361016979305,3,A
1781599026214,-1534.6537346665514,-19113.087640118236,2023.9482805997768,3,A
1781599026235,-929.69811958656,-18980.547970875108,2209.1622142354076,3,A
1781599026257,-1775.0334492678726,-17032.616468362434,2954.044338639575,3,A
1781599026278,-1418.4702059425795,-15430.091376604589,2185.0038750655426,3,A
1781599026300,-853.577876629475,-15377.878779630022,1452.2009202463078,3,A
1781599026322,941.257325727056,-14843.703749044073,-246.93560136752316,3,A
1781599026344,568.6687680950082,-16470.326962482486,542.23681151473,3,A
1781599026364,388.3839821440174,-20301.928309692983,1238.8022575791679,3,A
1781599026387,3941.997429666881,-22486.82467539792,-1938.0193432580656,3,A
1781599026408,1726.4977267580382,-16265.492928197651,-967.6593866018259,3,A
1781599026430,-2251.7865498938263,-11108.494888555855,1967.5788225367587,3,A
1781599026451,-3926.4318949496965,-9457.77355343687,3525.7916989930445,3,A
1781599026474,-3617.944594544668,-12317.417326197741,3932.4570750191033,3,A
1781599026494,-396.8564188869649,-16518.523205843627,2108.502467694304,3,A
1781599026516,636.7763538987159,-18305.80056381917,1424.0161912147987,3,A
1781599026538,1333.8775262425472,-20213.56853019756,-89.90639676340136,3,A
1781599026559,1510.1559836168492,-20008.734495912722,-1257.5594566402046,3,A
1781599026581,-1763.0144635378065,-15891.97204214883,-351.621737770271,3,A
1781599026603,-4723.691281710745,-13446.012691571063,864.348000446262,3,A
1781599026625,-7492.064328202626,-14124.776452240427,3473.4486307916704,3,A
1781599026646,-6458.431555416945,-14895.91634601864,3103.0207635204088,3,A
1781599026668,-3662.014208888243,-16088.77336920681,2515.167843720363,3,A
1781599026689,-2203.710606973562,-16763.520776262747,3384.8680538354993,3,A
1781599026711,-1771.0271206911839,-16594.833924498762,4995.423998493159,3,A
1781599026733,332.2953820703758,-17470.399012226106,4008.9584823903424,3,A
1781599026754,2696.0292423167,-19305.87261356279,2398.4025377326825,3,A
1781599026776,3753.699986562513,-18868.090069699116,-222.77726219765827,3,A
1781599026798,404.40929645077216,-17269.5813315547,-69.7744474551806,3,A
1781599026819,-2187.685292666807,-15819.677677107122,63.0964179790763,3,A
1781599026840,-4150.786295244263,-14221.168938962703,159.7297746585359,3,A
1781599026862,-6105.874640668341,-13293.39125426079,1395.8314621832897,3,A
1781599026884,-6157.956912165294,-13566.503299973907,1939.3940935052497,3,A
1781599026905,-3333.495265599771,-16333.77093962593,735.5035248736492,3,A
1781599026927,-380.83110458021014,-17333.84298936955,-29.510548838739123,3,A
1781599026949,3.7764387819036527,-16149.018673408234,1230.7494778558794,3,A
1781599026971,-1230.1727628382114,-14992.308832740915,2994.3082372560166,3,A
1781599026992,-1931.2802637587313,-14891.899992405211,3622.4250556725037,3,A
1781599027014,-1101.9702483841734,-15807.628616266838,2023.9482805997768,3,A
1781599027035,-244.61593297279484,-16715.324532901606,-242.90921150587903,3,A
1781599027057,1037.4092115675844,-17751.54376516608,-2558.0833819512645,3,A
1781599027079,-336.7614902366346,-19595.05007372962,-2288.3152612211065,3,A
1781599027100,-833.5462337460316,-18558.830841465147,-363.70090735520347,3,A
1781599027122,-3273.4003369494408,-16643.0301678599,3622.4250556725037,3,A
1781599027144,-1422.4765345192682,-13787.402748712459,2865.463761683404,3,A
1781599027165,-537.0779190710689,-13502.241642159057,2257.4788925751373,3,A
1781599027186,3373.0987717770877,-16562.703095591336,477.8145737284236,3,A
1781599027208,6730.402119042206,-17880.067080795783,-1595.776205018313,3,A
1781599027230,5135.883345520109,-16092.78972282024,-1551.4859165402274,3,A
1781599027251,-1350.362620138872,-15365.829718789737,2237.3469432669167,3,A
1781599027273,-3321.476279869705,-17129.00895508471,3195.627730338224,3,A
1781599027295,-2079.5144210962126,-17458.349951385822,924.7438483709242,3,A
1781599027316,-1474.558806016221,-16542.621327524193,453.65623455855877,3,A
1781599027338,-3257.375022642686,-15052.554136942339,2257.4788925751373,3,A
1781599027359,-1238.1854199915888,-15952.217346350253,1351.5411737052038,3,A
1781599027381,2079.0546415066424,-17438.26818331868,-738.1551644881093,3,A
1781599027408,540.6244680581875,-16582.78486365848,1134.11612117642,3,A
1781599027424,-1791.0587635746274,-16233.362099290227,2712.460946940926,3,A
1781599027446,-2688.4763647528926,-16514.5068522302,1766.2593294545513,3,A
1781599027467,-236.60327581941746,-17466.382658612678,-589.1787396072758,3,A
1781599027489,1818.6432840218781,-17972.44321390463,-1805.148477823809,3,A
1781599027510,680.8459682422914,-17386.055586344115,-689.8384861483795,3,A
1781599027532,1566.2445836904908,-19181.365651546515,-2300.394430806039,3,A
1781599027553,4899.509959495477,-17972.44321390463,-4780.650585578835,3,A
1781599027575,71.8840245856113,-14201.087170895562,-991.8177257716907,3,A
1781599027597,-6025.748069134567,-11747.095113090938,3477.4750206533145,3,A
1781599027618,-7023.32388473005,-12606.59478636457,4214.304365334194,3,A
1781599027640,-2207.7169355502506,-15237.306403160035,445.60345483527044,3,A
1781599027661,-288.6855473163704,-17253.515917100984,-259.0147709524556,3,A
1781599027683,-757.4259907889465,-19374.15062499107,348.9700981558109,3,A
1781599027705,1878.7382126722082,-21137.329861286045,-1092.4774723127944,3,A
1781599027727,3597.453172071654,-17586.873267015526,-2622.505619737571,3,A
1781599027748,-316.72984735319113,-12988.148379640248,-166.40780413464017,3,A
1781599027769,-5084.260853612726,-12449.95699544087,3364.7361045272783,3,A
1781599027791,-3365.5458942132805,-14823.621980976932,1637.4148538819386,3,A
1781599027813,-925.6917910098713,-18269.653381298318,336.89092857087843,3,A
1781599027834,1201.6686832118205,-20366.18996750783,-391.8856363867125,3,A
1781599027856,977.3142829172541,-20599.138477086668,195.9672834133332,3,A
1781599027878,1982.9027556661142,-17462.36630499925,-1648.1192732196869,3,A
1781599027899,2295.3963846478314,-15924.102871056255,-2586.2681109827736,3,A
1781599027922,-1282.2550343351643,-13795.435455939314,-746.2079442113976,3,A
1781599027943,-4719.684953134056,-14650.918775599519,1548.8342769257672,3,A
1781599027964,-4743.722924594188,-16602.866631725617,671.0812870873428,3,A
1781599027986,-2704.5016790596474,-18241.53890600432,-403.964805971645,3,A
1781599028007,-1734.9701635009858,-18783.746643817125,-713.9968253182444,3,A
1781599028029,-693.3247335619276,-17157.12343037871,-722.0496050415327,3,A
1781599028051,-553.1032333778236,-15466.238559125442,248.31035161470714,3,A
1781599028072,861.1307541932823,-14426.00297324754,22.832519362634812,3,A
1781599028094,39.83339597210182,-13895.84429627502,795.8993727983114,3,A
1781599028115,-312.7235187765025,-15562.631045847718,1001.245255742163,3,A
1781599028137,508.57383944467796,-16803.68431239703,-645.5481976702939,3,A
1781599028159,748.9535540459991,-17454.333597772395,-1390.4303220744614,3,A
1781599028180,2147.1622273103503,-16948.273042480443,-2980.8543174239003,3,A
1781599028202,2175.206527347171,-14976.243418287202,-2779.534824341693,3,A
1781599028223,-44.29950413836057,-14887.883638791782,-645.5481976702939,3,A
1781599028245,2163.187541617105,-17759.576472392935,-1100.5302520360826,3,A
1781599028267,2816.219099617361,-18265.63702768489,-689.8384861483795,3,A
1781599028288,512.5801680213667,-17494.497133906676,1279.0661561956092,3,A
1781599028310,-1923.2676066053539,-16325.738232399075,2744.6720658340796,3,A
1781599028332,-2039.4511353293258,-15827.71038433398,1709.8898713915332,3,A
1781599028353,-1242.1917485682775,-16377.950829373642,594.579879716104,3,A
1781599028376,-1827.1157207648255,-17329.82663575612,481.8409635900678,3,A
1781599028397,-1943.2992494887974,-17912.19790970321,904.6118990627034,3,A
1781599028418,-1887.2106494151558,-17434.251829705252,1005.2716456038072,3,A
1781599028440,-1783.04610642125,-17369.990171890404,1754.1801598696188,3,A
1781599028461,-653.2614477950407,-17510.562548360387,1391.8050723216454,3,A
1781599028484,-1254.2107342983434,-15060.586844169195,1673.652362636736,3,A
1781599028509,-501.0209618808707,-14060.514794425575,675.107676948987,3,A
1781599028527,2319.4343561079636,-15719.268836771418,-818.6829617209924,3,A
1781599028547,1638.3584980708872,-16377.950829373642,477.8145737284236,3,A
1781599028569,-144.45771855557769,-17060.730943656432,1754.1801598696188,3,A
1781599028591,1153.5927402915563,-20016.76720313958,46.99085853249971,3,A
1781599028613,4390.706230256013,-20346.108199440692,-3411.678032619824,3,A
1781599028635,504.5675108679893,-14711.164079800941,-734.1287746264652,3,A
1781599028656,-845.5652194760976,-11012.10240183358,-891.157979230587,3,A
1781599028677,-2464.1219644583266,-10863.497318136735,916.6910686476359,3,A
1781599028699,-1154.0525198811263,-13016.262854934246,42.96446867085556,3,A
1781599028721,-104.39443278869085,-17378.02287911726,-387.8592465250684,3,A
1781599028742,-164.4893614390211,-20012.75084952615,-93.93278662504551,3,A
1781599028764,-741.4006764821918,-20350.12455305412,79.2019774256529,3,A
1781599028786,-2460.115635881638,-17651.134924830374,940.8494078175007,3,A
1781599028808,-4471.292581379357,-15209.191927866037,1963.5524326751147,3,A
1781599028829,-5761.330383073114,-13606.66683610819,3352.6569349423457,3,A
1781599028850,-5012.14693923233,-14160.92363476128,3574.108377332774,3,A
1781599028872,-1803.0777493046933,-16494.425084163056,1943.420483366894,3,A
1781599028894,-673.2930906784842,-17562.775145334956,1915.2357543353849,3,A
1781599028915,-32.28051840829451,-18185.309955416324,1472.3328695545283,3,A
1781599028937,107.94098177580946,-17920.230616930065,1452.2009202463078,3,A
1781599028958,917.2193542669239,-16952.28939609387,679.1340668106311,3,A
1781599028980,456.49156794772506,-15863.857566854833,675.107676948987,3,A
1781599029002,-1570.7106918567497,-15478.287619965726,2378.270588424462,3,A
1781599029023,-3798.2293804956585,-14807.556566523219,3473.4486307916704,3,A
1781599029045,-1710.9321920408536,-16233.362099290227,940.8494078175007,3,A
1781599029067,-1566.704363280061,-18092.933822307477,711.3451857037843,3,A
1781599029088,-2295.8561642374016,-18940.384434740823,969.0341368490098,3,A
1781599029110,-36.2868469849832,-19205.463773227086,-1156.8997100991007,3,A
1781599029132,160.02325327276236,-16462.29425525563,-569.046790299055,3,A
1781599029153,-2019.4194924458823,-13253.227718126509,1649.4940234668709,3,A
1781599029175,-2948.8877222376573,-11883.651135947495,2732.592896249147,3,A
1781599029197,-1787.0524349979387,-12815.445174262835,2434.64004648748,3,A
1781599029218,985.3269400706315,-13510.274349385913,469.76179400513536,3,A
1781599029240,-4.236218371473718,-16100.822430047096,2285.6636216066463,3,A
1781599029261,624.7573681686498,-16972.37116416101,908.6382889243475,3,A
1781599029283,448.4789107943477,-19723.57338935932,300.6534198160811,3,A
1781599029305,4751.275802157996,-21008.80654565634,-4160.5865468856355,3,A
1781599029326,3641.52278641523,-18032.688518106053,-3600.9183561170994,3,A
1781599029348,-1502.603106053042,-15847.79215240112,820.0577119681762,3,A
1781599029369,-3101.1282081518275,-13923.958771569016,3054.704085180679,3,A
1781599029391,-3425.640822863611,-14377.806729886403,3996.87931280541,3,A
1781599029413,-2311.8814785441564,-15514.43480248658,3143.2846621368503,3,A
1781599029435,-2576.29916460561,-16357.869061306501,3167.443001306715,3,A
1781599029457,-3004.976322311299,-17096.878126177286,3171.4693911683594,3,A
1781599029478,-2572.292836028921,-17490.48078029325,2853.3845920984713,3,A
1781599029499,-1278.2487057584756,-17261.548624327843,2217.214993958696,3,A
1781599029521,-565.1222191078897,-16855.896909371593,2044.0802299079976,3,A
1781599029544,-1658.8499205439007,-16205.247623996229,3203.6805100615125,3,A
1781599029564,-2023.425821022571,-16305.656464331934,3916.3515155725268,3,A
1781599029596,-1991.3751924090616,-16020.495357778533,3445.2639017601614,3,A
1781599029611,-1001.8120339669563,-15887.955688535401,1935.3677036436056,3,A
1781599029629,-288.6855473163704,-15863.857566854833,832.1368815531088,3,A
1781599029651,-649.255119218352,-17546.70973088124,1093.8522225599784,3,A
1781599029672,648.795339628782,-19024.727860622817,34.91168894756726,3,A
1781599029694,1794.605312561746,-19607.099134569904,-846.8676907525014,3,A
1781599029715,1430.0294120830756,-16952.28939609387,-496.5717727894604,3,A
1781599029738,-1105.976576960862,-13389.783740983068,1323.356444673695,3,A
1781599029759,-2339.9257785809773,-11590.457322167238,2410.481707317615,3,A
1781599029780,-3870.343294876055,-11799.307710065505,3239.91801881631,3,A
1781599029802,-2039.4511353293258,-14426.00297324754,1866.919075995655,3,A
1781599029824,-148.4640471322664,-17281.63039239498,900.5855092010593,3,A
1781599029846,1650.3774838009533,-18012.606750038914,-879.0788096456546,3,A
1781599029867,79.89668173898868,-19153.251176252517,425.4715055270497,3,A
1781599029888,-3317.4699512930165,-17510.562548360387,2615.827590261467,3,A
1781599029911,-4014.5711236368475,-15908.037456602542,1862.8926861340108,3,A
1781599029932,-3613.938265967979,-15550.581985007433,646.9229479174779,3,A
1781599029954,-4335.077409771942,-14281.414243164125,795.8993727983114,3,A
1781599029975,-3930.438223526385,-13293.39125426079,340.91731843252256,3,A
1781599029998,-3946.46353783314,-15618.859996435713,1303.2244953654742,3,A
1781599030019,-2860.7484935505063,-17241.4668562607,1258.9342068873884,3,A
1781599030040,-1847.147363648269,-18100.966529534333,1528.7023276175464,3,A
1781599030062,-2135.6030211698544,-17767.609179619794,2237.3469432669167,3,A
1781599030083,-2428.0650072681283,-18117.031943988044,2644.012319292976,3,A
1781599030105,-1278.2487057584756,-18008.590396425483,1589.0981755422088,3,A
1781599030127,-1694.9068777340988,-17273.597685168126,1770.2857193161954,3,A
1781599030148,-2412.0396929613735,-16165.084087861947,1637.4148538819386,3,A
1781599030170,-1955.3182352188635,-15478.287619965726,1488.438429001105,3,A
1781599030192,-2187.685292666807,-14112.727391400142,2019.9218907381328,3,A
1781599030213,-2003.3941781391277,-14313.54507207155,1971.605212398403,3,A
1781599030235,-396.8564188869649,-17217.36873458013,650.9493377791221,3,A
1781599030256,288.2257677268003,-19687.426206838467,-110.0383460716221,3,A
1781599030277,644.7890110520933,-21631.341355737713,-967.6593866018259,3,A
1781599030299,2463.6621848687564,-19378.1669786045,-3170.094640921175,3,A
1781599030321,115.95363892918684,-15835.743091560835,-1168.9788796840332,3,A
1781599030343,-2027.4321495992597,-12634.709261658567,735.5035248736492,3,A
1781599030364,-3890.374937759498,-11562.34284687324,2317.8747404998,3,A
1781599030386,-4198.862238164527,-12180.861303341182,2921.833219746422,3,A
1781599030408,-3173.2421225322237,-12462.006056281156,1806.5232280709927,3,A
1781599030429,-893.6411623963618,-15526.483863326865,445.60345483527044,3,A
1781599030451,-753.4196622122579,-17321.793928529263,1480.3856492778168,3,A
1781599030473,408.41562502746086,-18791.77935104398,606.6590493010364,3,A
1781599030494,2339.465998991407,-19719.557035745893,-1370.2983727662406,3,A
1781599030517,1426.023083506387,-19398.248746671637,-399.93841611000084,3,A
1781599030538,-697.3310621386163,-17594.90597424238,1287.1189359188975,3,A
1781599030559,-2500.1789216485245,-16305.656464331934,3010.413796702593,3,A
1781599030583,-3213.3054082991107,-15887.955688535401,4230.409924780771,3,A
1781599030603,-2660.432064716072,-14859.769163497785,4306.911332152009,3,A
1781599030624,-1714.9385206175423,-15032.472368875196,2752.7248455573676,3,A
1781599030644,-292.69187589305903,-16944.256688867015,1822.6287875175694,3,A
1781599030667,-621.2108191815312,-17277.614038781554,1641.4412437435826,3,A
1781599030690,-901.6538195497392,-17201.30332012642,1605.2037349887853,3,A
1781599030713,-1434.4955202493343,-17534.660670040957,1826.6551773792135,3,A
1781599030733,-3301.4446369862617,-17281.63039239498,3694.900073182099,3,A
1781599030755,-3033.0206223481196,-16221.313038449942,3352.6569349423457,3,A
1781599030777,-1057.9006340405979,-15703.203422317705,1254.9078170257444,3,A
1781599030798,1321.858540512481,-15650.990825343139,-609.3106889154966,3,A
1781599030819,889.1750542301031,-16904.093152732734,389.23399677225234,3,A
1781599030842,412.42195360414956,-18333.91503911317,924.7438483709242,3,A
1781599030863,1157.599068868245,-17839.9035446615,-464.3606538963072,3,A
1781599030884,1081.47882591116,-15112.799441143761,-1362.2455930429524,3,A
1781599030907,-1065.9132911939753,-11080.380413261857,-399.93841611000084,3,A
1781599030928,-1959.324563795552,-11220.952789731844,328.8381488475901,3,A
1781599030949,-1879.1979922617784,-12610.611139977998,445.60345483527044,3,A
1781599030972,-3986.5268236000265,-15052.554136942339,2462.824775518989,3,A
1781599030993,-3890.374937759498,-18337.931392726598,2414.5080971792595,3,A
1781599031015,-2516.2042359552793,-21225.689640781464,759.661864043514,3,A
1781599031036,-2420.052350114751,-22326.17053086079,-331.4897884620503,3,A
1781599031058,-4747.729253170877,-18229.489845164037,1484.4120391394608,3,A
1781599031080,-5256.53298241034,-15000.341539967772,2015.8955008764885,3,A
1781599031101,-3413.621837133545,-13936.007832409301,1597.150955265497,3,A
1781599031122,-1037.8689911571546,-15100.750380303476,1230.7494778558794,3,A
1781599031144,-400.86274746365353,-15771.481433745985,2144.7399764491015,3,A
1781599031166,728.9219111625557,-16582.78486365848,1637.4148538819386,3,A
1781599031187,1001.3522543773862,-17406.137354411258,1327.382834535339,3,A
1781599031209,-1566.704363280061,-17149.09072315185,2563.484522060093,3,A
1781599031231,-3325.482608446394,-16373.934475760212,2410.481707317615,3,A
1781599031253,-4022.583780790225,-16510.49049861677,1903.1565847504523,3,A
1781599031274,-3942.4572092564513,-16430.16342634821,1705.863481529889,3,A
1781599031296,-3337.5015941764595,-15795.579555426553,1456.2273101079518,3,A
1781599031317,-2007.4005067158164,-15080.668612236335,1585.0717856805645,3,A
1781599031339,-1566.704363280061,-16775.56983710303,1983.6843819833352,3,A
1781599031361,921.2256828436125,-17940.312384997207,-460.3342640346631,3,A
1781599031382,3785.7506151760226,-20064.96344650072,-3323.097455663653,3,A
1781599031404,1666.402798107708,-19056.858689530243,-1772.9373589306556,3,A
1781599031425,-3569.8686516244034,-14783.458444842649,1492.464818862749,3,A
1781599031447,-4743.722924594188,-12004.141744350341,1230.7494778558794,3,A
1781599031469,-4371.13436696214,-10650.63057662504,650.9493377791221,3,A
1781599031490,-2047.4637924827032,-13140.76981695052,-303.30505943054123,3,A
1781599031512,-140.451389978889,-14245.267060643271,-995.8441156333348,3,A
1781599031534,-336.7614902366346,-15932.135578283112,654.9757276407662,3,A
1781599031555,-228.5906186660401,-17374.00652550383,2136.687196725813,3,A
1781599031577,1337.8838548192357,-18952.43349558111,1858.8662962723668,3,A
1781599031598,2187.225513077237,-19197.43106600023,1572.9926160956322,3,A
1781599031621,1730.504055334727,-18309.8169174326,1444.1481405230195,3,A
1781599031642,-20.26153267822846,-17558.758791721528,1762.232939592907,3,A
1781599031663,-1178.0904913412585,-18249.571613231175,1371.6731230134246,3,A
1781599031685,-2896.8054507407046,-17815.80542298093,1053.588323943537,3,A
1781599031706,-4262.963495391546,-17197.28696651299,1383.7522925983571,3,A
1781599031728,-5909.564540410595,-17663.18398567066,2096.4232981093714,3,A
1781599031750,-4659.590024483726,-16671.144643153897,2342.0330796696644,3,A
1781599031771,-1787.0524349979387,-15096.734026690048,1395.8314621832897,3,A
1781599031799,-577.1412048379557,-14373.790376272975,2189.030264927187,3,A
1781599031816,244.15615338322476,-15418.042315764304,3578.134767194418,3,A
1781599031836,1902.7761841323404,-16671.144643153897,3562.0292077478416,3,A
1781599031858,2796.1874567339173,-16855.896909371593,2893.648490714913,3,A
1781599031880,2840.2570710774926,-15353.780657949452,2277.6108418833583,3,A
1781599031901,1722.4913981813495,-18374.07857524745,42.96446867085556,3,A
1781599031923,7868.199434821792,-23663.61628413238,-7232.722011320122,3,A
1781599031944,8328.927221140992,-19546.85383036848,-8199.055578114718,3,A
1781599031966,-3870.343294876055,-13377.734680142783,1154.2480704846407,3,A
1781599031987,-8417.526229417712,-9068.187252934335,4870.60591278219,3,A
1781599032009,-8016.893371748844,-8236.802054954698,4931.001760706852,3,A
1781599032031,-3874.3496234527433,-10236.946154441937,1508.5703783093259,3,A
1781599032052,-1109.9829055375508,-15128.864855597474,-830.7621313059248,3,A
1781599032074,-625.2171477582199,-18984.564324488536,-77.82722717846892,3,A
1781599032096,-1654.843591967212,-20370.20632112126,1379.725902736713,3,A
1781599032118,-2588.3181503356755,-20233.650298264703,2740.645675972435,3,A
1781599032139,-2091.5334068262787,-17414.170061638113,2374.244198562818,3,A
1781599032160,-1662.8562491205894,-15980.33182164425,2281.6372317450023,3,A
1781599032182,-1162.0651770345037,-15795.579555426553,2346.059469531309,3,A
1781599032204,-553.1032333778236,-16357.869061306501,2168.898315618966,3,A
1781599032225,55.85871027885656,-16655.079228700186,1564.9398363723437,3,A
1781599032246,-637.236133488286,-16329.754586012503,1504.5439884476816,3,A
1781599032269,-1234.1790914149,-17181.221552059276,1520.6495478942581,3,A
1781599032291,-1666.862577697278,-17912.19790970321,1403.884241906578,3,A
1781599032312,-2047.4637924827032,-17791.70730130036,1705.863481529889,3,A
1781599032333,-2327.906792850911,-16020.495357778533,1939.3940935052497,3,A
1781599032355,-2496.1725930718358,-14992.308832740915,2197.083044650475,3,A
1781599032377,-2135.6030211698544,-15650.990825343139,2193.056654788831,3,A
1781599032398,-1438.501848826023,-16000.413589711392,1742.1009902846863,3,A
1781599032420,-929.69811958656,-17072.780004496715,1291.1453257805417,3,A
1781599032440,135.98528181263026,-18113.015590374616,437.5506751119822,3,A
1781599032462,312.2637391869324,-18671.288742641136,14.779739639346515,3,A
1781599032485,929.2383399969899,-19655.29537793104,-693.8648760100237,3,A
1781599032507,2936.408956918021,-18092.933822307477,-2743.2973155868954,3,A
1781599032527,508.57383944467796,-16253.443867357368,-927.3954879853843,3,A
1781599032549,-1454.5271631327778,-13365.685619302498,2.7005700544140683,3,A
1781599032571,-1963.3308923722407,-11180.789253597562,739.5299147352933,3,A
1781599032592,-1234.1790914149,-10044.161180997384,485.86735345171195,3,A
1781599032614,-232.59694724272876,-11590.457322167238,357.02287787909916,3,A
1781599032635,841.0991113098388,-15819.677677107122,256.36313133799547,3,A
1781599032657,1313.8458833591037,-18896.204544993114,10.753349777702367,3,A
1781599032679,4250.48473007191,-21374.29472447831,-2968.7751478389678,3,A
1781599032700,4546.953044746872,-21739.782903300274,-3097.6196234115805,3,A
1781599032722,340.3080392237532,-18474.487415583153,791.8729829366672,3,A
1781599032743,-2075.508092519524,-15807.628616266838,3090.9415939354762,3,A
1781599032766,-2860.7484935505063,-15426.07502299116,4234.436314642415,3,A
1781599032787,-336.7614902366346,-16381.96718298707,2152.7927561723895,3,A
1781599032808,500.5611822913006,-17201.30332012642,1069.6938833901136,3,A
1781599032830,-40.29317556167188,-17297.695806848697,759.661864043514,3,A
1781599032852,-372.81844742683273,-16622.94839979276,405.33955621882893,3,A
1781599032879,-1041.875319733843,-14928.047174926065,763.6882539051583,3,A
1781599032895,-2091.5334068262787,-14675.016897280088,2072.2649589395064,3,A
1781599032917,-1290.2676914885417,-16972.37116416101,2370.2178087011735,3,A
1781599032937,1109.5231259479808,-18113.015590374616,1428.0425810764427,3,A
1781599032959,2135.143241580284,-18072.852054240335,928.7702382325683,3,A
1781599032982,2095.079955813397,-17233.434149033845,594.579879716104,3,A
1781599033002,2223.282470267435,-18265.63702768489,417.4187258037614,3,A
1781599033024,3737.674672255758,-17807.772715754076,-1229.3747276086956,3,A
1781599033047,2611.8963422062375,-14988.292479127487,-1229.3747276086956,3,A
1781599033068,-953.7360910466921,-13441.996337957633,457.6826244202029,3,A
1781599033090,-3421.6344942869223,-13450.02904518449,1142.1689008997082,3,A
1781599033111,-2139.609349746543,-14305.512364844695,-198.6189230277934,3,A
1781599033132,208.0991961930266,-14470.18286299525,-1454.8525598607678,3,A
1781599033154,396.3966392973948,-15494.353034419439,-432.149535003154,3,A
1781599033176,580.6877538250743,-16835.815141304454,385.2076069106082,3,A
1781599033198,-376.82477600352144,-17900.148848862922,1593.1245654038528,3,A
1781599033219,-713.356376445371,-17843.91989827493,1126.0633414531317,3,A
1781599033240,-2175.666306936741,-17651.134924830374,1484.4120391394608,3,A
1781599033262,-3073.0839081150066,-16177.13314870223,828.1104916914646,3,A
1781599033283,-3273.4003369494408,-15297.551707361457,900.5855092010593,3,A
1781599033305,-4066.6533951338006,-15140.913916437758,2398.4025377326825,3,A
1781599033327,-2115.571378286411,-16080.740661979955,2217.214993958696,3,A
1781599033349,272.20045342004556,-17518.595255587246,2011.8691110148443,3,A
1781599033370,1365.9281548560566,-17574.82420617524,2269.5580621600698,3,A
1781599033392,1598.2952123040004,-17574.82420617524,2321.901130361444,3,A
1781599033413,1694.4470981445288,-17020.56740752215,1512.5967681709699,3,A
1781599033435,-68.33747559849267,-16450.245194415347,1621.3092944353618,3,A
1781599033457,-1674.8752348506555,-16663.11193592704,1987.7107718449795,3,A
1781599033479,-2195.6979498201845,-16630.981107019616,2007.8427211532003,3,A
1781599033500,-2295.8561642374016,-15675.088947023707,1617.2829045737178,3,A
1781599033521,-1819.103063611448,-16004.42994332482,916.6910686476359,3,A
1781599033543,-861.5905337828524,-17088.84541895043,-29.510548838739123,3,A
1781599033564,-1646.8309348138346,-18442.35658667573,123.49226590373854,3,A
1781599033586,-737.3943479055031,-20635.28565960752,-403.964805971645,3,A
1781599033608,2419.5925705251807,-20117.176043475283,-3419.7308123431126,3,A
1781599033629,244.15615338322476,-14723.213140641226,-1696.4359515594167,3,A
1781599033651,-2396.0143786546187,-10702.843173599607,75.17558756400875,3,A
1781599033673,-4747.729253170877,-9064.170899320907,1746.1273801463306,3,A
1781599033694,-5244.5139966802735,-10506.041846541626,2776.8831847272327,3,A
1781599033715,-2183.6789640901184,-14687.065958120373,771.7410336284465,3,A
1781599033738,-416.8880617704083,-17631.053156763235,373.12843732567575,3,A
1781599033759,-64.331147021804,-20514.795051204674,594.579879716104,3,A
1781599033781,1774.5736696783024,-22053.058485147674,-122.11751565655454,3,A
1781599033802,3076.630457102125,-19623.16454902362,-742.1815543497535,3,A
1781599033824,484.53586798454586,-16667.12828954047,1307.2508852271183,3,A
1781599033845,-132.43873282551164,-14486.248277448964,1657.5468031901594,3,A
1781599033867,-1446.5145059794004,-14502.313691902677,2853.3845920984713,3,A
1781599033888,-1370.3942630223153,-16092.78972282024,2575.5636916450253,3,A
1781599033910,-1246.1980771449662,-17153.107076765278,2100.4496879710155,3,A
1781599033932,-2147.62200689992,-17434.251829705252,2112.528857555948,3,A
1781599033953,-2536.235878838723,-17092.861772563858,2140.713586587457,3,A
1781599033979,-1843.1410350715803,-16956.3057497073,1597.150955265497,3,A
1781599033997,-1194.1158056480133,-16819.74972685074,1750.1537700079748,3,A
1781599034018,-697.3310621386163,-16418.11436550792,2426.5872667641916,3,A
1781599034040,-489.00197615080464,-16020.495357778533,2897.674880576557,3,A
1781599034061,-168.4956900157098,-16707.29182567475,3103.0207635204088,3,A
1781599034084,15.795424511969708,-16735.40630096875,2378.270588424462,3,A
1781599034105,464.50422510110246,-16667.12828954047,1476.3592594161726,3,A
1781599034126,424.4409393342156,-16462.29425525563,1061.6411036668253,3,A
1781599034147,440.4662536409703,-16518.523205843627,469.76179400513536,3,A
1781599034170,2199.244498807303,-19374.15062499107,-2058.81103910739,3,A
1781599034191,3893.921486746617,-19185.382005159943,-3987.4517828349376,3,A
1781599034213,-649.255119218352,-14859.769163497785,-798.5510124127716,3,A
1781599034235,-3762.1724233054606,-10714.892234439892,1786.3912787627721,3,A
1781599034256,-4295.014124005055,-9578.264161839714,2587.642861229958,3,A
1781599034278,-2820.6852077836193,-11477.99942099125,1254.9078170257444,3,A
1781599034300,-1049.8879768872205,-14803.540212909791,115.43948618045023,3,A
1781599034321,-2788.63457917011,-17213.352380966702,1311.2772750887625,3,A
1781599034343,-4535.393838606376,-19498.657587007343,2672.197048324485,3,A
1781599034364,-2243.773892740449,-20711.596378262657,252.3367414763513,3,A
1781599034385,-1823.1093921881368,-18442.35658667573,473.7881838667795,3,A
1781599034408,-3633.9699088514226,-15928.119224669683,2297.742791191579,3,A
1781599034430,-2996.9636651579217,-14952.145296606634,2503.0886741354307,3,A
1781599034451,-797.4892765558334,-15068.61955139605,2124.6080271408805,3,A
1781599034472,841.0991113098388,-16518.523205843627,2233.3205534052727,3,A
1781599034494,1209.681340365198,-16928.1912744133,2354.112249254597,3,A
1781599034516,244.15615338322476,-18129.08100482833,2168.898315618966,3,A
1781599034538,-1334.3373058321172,-17868.018019955496,2305.7955709148673,3,A
1781599034559,-1967.3372209489294,-17522.611609200674,1403.884241906578,3,A
1781599034580,-3129.172508188648,-17048.68188281615,1862.8926861340108,3,A
1781599034602,-3449.6787943237427,-15550.581985007433,1850.8135165490785,3,A
1781599034624,-3229.330722605865,-14602.72253223838,1931.3413137819614,3,A
1781599034645,-3137.1851653420254,-15317.633475428598,2180.9774852038986,3,A
1781599034667,-1506.6094346297307,-17064.74729726986,1138.142511038064,3,A
1781599034689,208.0991961930266,-18691.37051070828,-202.64531288943752,3,A
1781599034710,1686.4344409911514,-19325.95438162993,-1740.7262400375025,3,A
1781599034732,1233.71931182533,-17402.121000797826,-1499.1428483388536,3,A
1781599034753,-853.577876629475,-14787.474798456078,-279.1467202606764,3,A
1781599034775,-1370.3942630223153,-13703.059322830466,123.49226590373854,3,A
1781599034796,-1045.8816483105318,-13172.900645857944,-110.0383460716221,3,A
1781599034818,-853.577876629475,-12445.940641827443,-573.0731801606993,3,A
1781599034840,-2167.6536497833636,-13277.325839807078,876.4271700311944,3,A
1781599034862,-2392.00805007793,-16052.626186685957,1355.567563566848,3,A
1781599034883,-1089.9512626541075,-18908.2536058334,1166.327240069573,3,A
1781599034905,973.3079543405654,-20221.601237424416,260.3895211996396,3,A
1781599034926,1530.1876265002927,-19064.8913967571,336.89092857087843,3,A
1781599034948,356.33335353050796,-16775.56983710303,1343.4883939819156,3,A
1781599034970,-1290.2676914885417,-15361.81336517631,2342.0330796696644,3,A
1781599034991,-1750.9954778077404,-16241.394806517083,2269.5580621600698,3,A
1781599035013,-981.7803910835129,-17659.167632057233,948.9021875407891,3,A
1781599035034,-1530.6474060898627,-18526.70001255772,956.9549672640774,3,A
1781599035056,-2347.9384357343547,-18036.70487171948,1415.9634114915104,3,A
1781599035078,-2616.3624503724964,-16201.231270382801,1870.9454658572993,3,A
1781599035099,-2311.8814785441564,-15181.07745257204,2342.0330796696644,3,A
1781599035121,-1097.9639198074847,-14590.673471398097,2350.085859392953,3,A
1781599035143,284.2194391501116,-16329.754586012503,2193.056654788831,3,A
1781599035165,1766.5610125249252,-17494.497133906676,1536.755107340835,3,A
1781599035185,2423.5988991018694,-18510.634598104007,659.0021175024103,3,A
1781599035207,2704.0418994700776,-18723.5013396157,-89.90639676340136,3,A
1781599035229,1606.3078694573778,-18092.933822307477,-742.1815543497535,3,A
1781599035250,1710.4724124512836,-18530.71636617115,-1821.2540372703854,3,A
1781599035272,1393.9724548928773,-16233.362099290227,-2050.758259384102,3,A
1781599035294,-685.3120764085502,-12935.935782665681,-798.5510124127716,3,A
1781599035316,-3004.976322311299,-10566.28715074305,1512.5967681709699,3,A
1781599035337,-2720.526993366402,-11044.233230741003,1633.3884640202944,3,A
1781599035358,-92.37544705862479,-14241.250707029843,-234.8564317825907,3,A
1781599035380,1554.2255979604247,-16446.22884080192,-1181.0580492689658,3,A
1781599035402,-140.451389978889,-17277.614038781554,-182.5133635812168,3,A
1781599035423,-1975.3498781023068,-19558.902891208767,457.6826244202029,3,A
1781599035445,-1783.04610642125,-18992.59703171539,-45.61610828531572,3,A
1781599035467,-3706.0838232318188,-16446.22884080192,348.9700981558109,3,A
1781599035489,-5320.634239637359,-15004.3578935812,1999.789941429912,3,A
1781599035511,-4347.096395502009,-15361.81336517631,2245.399722990205,3,A
1781599035532,-1142.0335341510604,-17024.58376113558,1202.5647488243706,3,A
1781599035553,957.2826400338107,-18627.108852893427,948.9021875407891,3,A
1781599035575,2147.1622273103503,-19470.543111713345,932.7966280942125,3,A
1781599035597,1073.4661687577825,-18345.964099953453,1770.2857193161954,3,A
1781599035618,-44.29950413836057,-16466.31060886906,1025.403594912028,3,A
1781599035640,-1370.3942630223153,-15385.911486856878,671.0812870873428,3,A
1781599035662,-1991.3751924090616,-15096.734026690048,385.2076069106082,3,A
1781599035684,-2155.6346640532975,-15381.89513324345,22.832519362634812,3,A
1781599035705,-1827.1157207648255,-15887.955688535401,-279.1467202606764,3,A
1781599035726,-1738.9764920776745,-15895.988395762259,-315.3842290154737,3,A
1781599035747,-1530.6474060898627,-15980.33182164425,-403.964805971645,3,A
1781599035770,-1162.0651770345037,-15988.364528871107,-581.1259598839875,3,A
1781599035791,-1226.1664342615227,-16040.577125845673,-460.3342640346631,3,A
1781599035812,-1234.1790914149,-17052.698236429576,-424.0967552798657,3,A
1781599035834,-1258.217062875032,-18273.669734911746,-444.2287045880865,3,A
1781599035856,-172.50201859239849,-20663.40013490152,-1998.415191182728,3,A
1781599035878,2459.6558562920677,-19362.101564150784,-3669.3669837650496,3,A
1781599035899,-120.41974709544559,-14895.91634601864,-1406.5358815210382,3,A
1781599035921,-3453.6851229004315,-11915.781964854921,1363.6203432901364,3,A
1781599035943,-4887.950753354981,-11473.98306737782,3638.5306151190807,3,A
1781599035965,-1546.6727203966175,-13506.257995772485,2366.1914188395294,3,A
1781599035986,1602.3015408806891,-16538.604973910766,1359.5939534284923,3,A
1781599036007,2435.6178848319355,-18333.91503911317,1339.4620041202716,3,A
1781599036029,3525.339257691258,-20406.353503642113,413.39233594211726,3,A
1781599036051,2663.9786137031906,-20546.9258801121,787.8465930750231,3,A
1781599036072,-797.4892765558334,-17916.214263316637,1951.4732630901822,3,A
1781599036094,-1370.3942630223153,-15337.715243495739,956.9549672640774,3,A
1781599036115,-1899.229635145222,-14032.400319131577,123.49226590373854,3,A
1781599036138,-1955.3182352188635,-14225.18529257613,-448.2550944497306,3,A
1781599036159,-2496.1725930718358,-16422.130719121353,312.7325894010135,3,A
1781599036180,-2644.4067504093173,-17386.055586344115,1162.300850207929,3,A
1781599036202,-1202.1284628013905,-18896.204544993114,1021.3772050503837,3,A
1781599036223,320.27639634030976,-18691.37051070828,1017.3508151887396,3,A
1781599036245,660.814325358848,-17124.992601471284,1689.7579220833125,3,A
1781599036267,288.2257677268003,-16076.724308366527,2329.9539100847323,3,A
1781599036288,424.4409393342156,-15325.666182655455,2176.9510953422546,3,A
1781599036309,244.15615338322476,-15004.3578935812,1697.8107018066007,3,A
1781599036332,-96.38177563531347,-15128.864855597474,952.9285774024332,3,A
1781599036353,-625.2171477582199,-15891.97204214883,1033.4563746353163,3,A
1781599036377,67.87769600892261,-17803.756362140648,-412.01758569493325,3,A
1781599036398,2619.908999359615,-19113.087640118236,-2497.6875340266024,3,A
1781599036420,1786.5926554083685,-17474.415365839533,-2042.7054796608136,3,A
1781599036441,-777.45763367239,-16884.01138466559,-947.5274372936051,3,A
1781599036463,-1266.2297200284095,-16787.618897943314,-1462.905339584056,3,A
1781599036484,-2536.235878838723,-15225.25734231975,-790.4982326894833,3,A
1781599036506,-4351.102724078697,-13088.557219975954,618.7382188859689,3,A
1781599036527,-3802.235709072347,-11883.651135947495,111.41309631880608,3,A
1781599036550,-3686.0521803483753,-12486.104177961724,582.5007101311716,3,A
1781599036571,-3437.659808593677,-13803.468163166172,1363.6203432901364,3,A
1781599036593,-3369.552222789969,-16048.609833072529,2023.9482805997768,3,A
1781599036614,-1690.90054915741,-17386.055586344115,1641.4412437435826,3,A
1781599036636,-1330.3309772554285,-19651.279024317613,2873.5165414066923,3,A
1781599036657,-1350.362620138872,-21209.624226327753,3606.319496225927,3,A
1781599036679,19.801753088658394,-21177.493397420327,2354.112249254597,3,A
1781599036701,2055.0166700465106,-19502.67394062077,332.8645387092343,3,A
1781599036722,-16.25520410153977,-16526.555913070482,1234.7758677175236,3,A
1781599036744,-1718.944849194231,-14538.46087442353,2100.4496879710155,3,A
1781599036765,-1895.2233065685332,-13723.141090897607,1786.3912787627721,3,A
1781599036787,-1590.742334740193,-14209.119878122418,1113.9841718681992,3,A
1781599036808,-1710.9321920408536,-15156.97933089147,493.9201331750002,3,A
1781599036831,-2740.5586362498457,-16313.68917155879,960.9813571257215,3,A
1781599036852,-2932.8624079309025,-16972.37116416101,735.5035248736492,3,A
1781599036874,-2684.470036176204,-15944.184639123396,425.4715055270497,3,A
1781599036895,-2640.4004218326286,-15912.053810215972,868.3743903079061,3,A
1781599036917,-1666.862577697278,-16823.766080464167,409.3659460804731,3,A
1781599036938,-1097.9639198074847,-18329.89868549974,300.6534198160811,3,A
1781599036960,348.32069637713056,-18964.482556421393,-657.6273672552263,3,A
1781599036983,1734.5103839114156,-17277.614038781554,-1990.3624114594397,3,A
1781599037004,-777.45763367239,-14920.014467699208,-468.38704375795135,3,A
1781599037025,-2824.691536360308,-13755.271919805033,1057.614713805181,3,A
1781599037047,-2624.375107525874,-13642.814018629044,1645.4676336052269,3,A
1781599037069,-705.3437192919936,-14940.096235766348,977.0869165722982,3,A
1781599037090,444.472582217659,-16558.68674197791,1367.6467331517806,3,A
1781599037112,1005.3585829540749,-17394.08829357097,1834.7079571025017,3,A
1781599037133,2531.769770672464,-17337.859342982978,1101.9050022832666,3,A
1781599037154,2511.7381277890204,-17835.887191048074,437.5506751119822,3,A
1781599037176,1009.3649115307636,-17462.36630499925,489.8937433133561,3,A
1781599037197,-577.1412048379557,-16149.018673408234,590.5534898544598,3,A
1781599037219,-2091.5334068262787,-15144.930270051187,904.6118990627034,3,A
1781599037241,-3794.2230519189698,-15655.007178956566,2495.035894412142,3,A
1781599037264,-3730.121794691951,-17016.551053908723,3058.730475042323,3,A
1781599037284,-821.5272480159655,-17273.597685168126,1762.232939592907,3,A
1781599037305,-284.6792187396817,-17864.00166634207,2627.9067598463994,3,A
1781599037328,-36.2868469849832,-18020.63945726577,2660.1178787395525,3,A
1781599037348,809.0484826963294,-16683.19370399418,1895.103805027164,3,A
1781599037370,400.40296787408346,-15622.87635004914,1866.919075995655,3,A
1781599037393,-424.90071892378563,-15377.878779630022,2092.3969082477274,3,A
1781599037413,-1138.0272055743717,-15422.058669377731,2346.059469531309,3,A
1781599037436,-541.0842476477575,-16048.609833072529,1730.021820699754,3,A
1781599037457,897.1877113834804,-16209.263977609657,650.9493377791221,3,A
1781599037478,3.7764387819036527,-16068.69160113967,1343.4883939819156,3,A
1781599037500,300.24475345686636,-19004.646092555675,614.7118290243247,3,A
1781599037522,3280.953214513248,-21932.567876744826,-1640.0664934963986,3,A
1781599037544,2287.383727494454,-16534.588620297338,-915.3163184004519,3,A
1781599037565,-1690.90054915741,-12855.608710397119,2023.9482805997768,3,A
1781599037586,-4126.748323784131,-11192.838314437848,3606.319496225927,3,A
1781599037608,-3730.121794691951,-12044.305280484623,2321.901130361444,3,A
1781599037629,-264.64757585623823,-15165.012038118328,-202.64531288943752,3,A
1781599037651,1249.7446261320847,-17831.870837434642,-1438.7470004141912,3,A
1781599037673,1478.1053550033398,-19101.038579277953,-1873.5971054717593,3,A
1781599037695,-1085.9449340774188,-17711.380229031798,-367.72729721684766,3,A
1781599037716,-3814.2546948024133,-14462.150155768393,1041.5091543586045,3,A
1781599037738,-5492.906368434972,-13968.138661316727,2148.7663663107455,3,A
1781599037759,-4879.938096201604,-14168.956341988136,1633.3884640202944,3,A
1781599037780,-2524.2168931086567,-17104.91083340414,807.9785423832438,3,A
1781599037803,-1346.3562915621833,-19165.300237092804,1492.464818862749,3,A
1781599037824,-196.5399900525306,-19872.178473056167,1878.9982455805875,3,A
1781599037845,1169.6180545983111,-18912.26995944683,1444.1481405230195,3,A
1781599037867,957.2826400338107,-17233.434149033845,1262.9605967490327,3,A
1781599037889,-1170.077834187881,-15494.353034419439,2080.317738662795,3,A
1781599037911,-2031.4384781759484,-14731.245847868084,2120.5816372792365,3,A
1781599037932,-1650.8372633905233,-15687.138007863992,1581.0453958189205,3,A
1781599037954,-689.3184049852389,-16506.47414500334,860.3216105846178,3,A
1781599037976,288.2257677268003,-16076.724308366527,-65.74805759353646,3,A
1781599037998,-1919.2612780286652,-15301.568060974885,1069.6938833901136,3,A
1781599038020,-4242.931852508103,-15695.170715090848,1887.0510253038758,3,A
1781599038041,-2396.0143786546187,-16566.719449204764,-230.83004192094657,3,A
1781599038062,-1506.6094346297307,-15867.87392046826,-834.7885211675689,3,A
1781599038083,-4763.754567477632,-17462.36630499925,2482.9567248272097,3,A
1781599038105,368.352339260574,-20747.74356078351,10.753349777702367,3,A
1781599038126,5608.630117569374,-20281.84654162584,-1326.008084288155,3,A
1781599038149,3513.320271961192,-15908.037456602542,1999.789941429912,3,A
1781599038170,-260.6412472795496,-11353.492458974975,5317.535187424691,3,A
1781599038192,-865.596862359541,-10204.815325534511,4866.579522920546,3,A
1781599038214,-1258.217062875032,-14024.367611904721,4331.069671321874,3,A
1781599038235,-721.3690335987484,-17835.887191048074,2841.3054225135393,3,A
1781599038257,-1045.8816483105318,-19325.95438162993,578.4743202695273,3,A
1781599038279,-2275.824521353958,-19715.540682132465,87.2547571489412,3,A
1781599038300,-4691.640653097235,-16402.04895105421,884.4799497544827,3,A
1781599038322,-6706.823927171644,-12694.95456585999,4137.802957962955,3,A
1781599038345,-3645.9888945814887,-13201.015121151942,3574.108377332774,3,A
1781599038364,1345.896511972613,-16124.920551727664,2140.713586587457,3,A
1781599038386,2079.0546415066424,-19121.120347345095,3256.0235782628865,3,A
1781599038408,3673.5734150287394,-20386.271735574974,2619.853980123111,3,A
1781599038430,3593.4468434949654,-18795.79570465741,2060.1857893545744,3,A
1781599038452,1770.5673411016137,-15707.219775931133,2160.845535895678,3,A
1781599038473,1385.9597977395001,-14385.839437113258,1150.2216806229965,3,A
1781599038494,71.8840245856113,-14020.351258291294,1331.4092243969833,3,A
1781599038517,-132.43873282551164,-15341.731597109168,1617.2829045737178,3,A
1781599038537,432.45359648759296,-16679.177350380753,1609.2301248504295,3,A
1781599038559,1654.383812377642,-17068.763650883287,900.5855092010593,3,A
1781599038581,1422.0167549296982,-16779.586190716458,1057.614713805181,3,A
1781599038603,572.6750966716969,-15843.775798787692,1500.5175985860374,3,A
1781599038624,-436.91970465385174,-15554.598338620863,2112.528857555948,3,A
1781599038646,-877.6158480896071,-15132.881209210902,1887.0510253038758,3,A
1781599038667,208.0991961930266,-15646.97447172971,888.5063396161269,3,A
1781599038689,1101.5104687946034,-16755.488069035888,522.1048622065093,3,A
1781599038710,2147.1622273103503,-17137.041662311567,-1152.8733202374567,3,A
1781599038732,1650.3774838009533,-17490.48078029325,-2280.2624814978185,3,A
1781599038754,75.89035316229999,-17169.172491218993,-3190.226590229396,3,A
1781599038775,-3722.1091375385736,-15735.334251225131,-625.4162483620731,3,A
1781599038797,-7343.830170865145,-12654.791029725708,2036.0274501847093,3,A
1781599038819,-9110.621073184853,-12052.33798771148,4459.914146894487,3,A
1781599038841,-4443.248281342537,-14518.37910635639,1548.8342769257672,3,A
1781599038862,-1911.2486208752878,-18225.473491550605,1150.2216806229965,3,A
1781599038884,-1410.4575487892023,-20474.631515070392,2704.408167217638,3,A
1781599038905,296.23842488017766,-20936.512180614634,2772.8567948655887,3,A
1781599038928,1293.8142404756602,-19587.017366502765,3046.6513054573907,3,A
1781599038948,268.19412484335686,-16952.28939609387,2527.2470133052952,3,A
1781599038970,-797.4892765558334,-14887.883638791782,1589.0981755422088,3,A
1781599038992,-2087.52707824959,-14421.986619634112,1009.2980354654513,3,A
1781599039013,-2259.7992070472033,-14683.049604506945,485.86735345171195,3,A
1781599039035,-2892.799122164016,-15104.766733916904,932.7966280942125,3,A
1781599039057,-2792.6409077467983,-16112.87149088738,1077.7466631134018,3,A
1781599039078,-2500.1789216485245,-16767.537129876175,1415.9634114915104,3,A
1781599039101,-1166.0715056111924,-17418.18641525154,860.3216105846178,3,A
1781599039122,-853.577876629475,-17249.499563487556,1347.5147838435598,3,A
1781599039143,-673.2930906784842,-16498.441437776484,1266.986986610677,3,A
1781599039165,-1097.9639198074847,-16157.05138063509,1705.863481529889,3,A
1781599039187,-861.5905337828524,-16201.231270382801,1194.511969101082,3,A
1781599039208,-324.74250450656854,-16570.73580281819,441.5770649736263,3,A
1781599039230,-1009.8246911203337,-16522.539559457055,369.1020474640316,3,A
1781599039252,-2416.046021538062,-16313.68917155879,1069.6938833901136,3,A
1781599039273,-2684.470036176204,-15875.906627695118,485.86735345171195,3,A
1781599039295,-2400.0207072313074,-15205.17557425261,296.6270299544369,3,A
1781599039316,-2139.609349746543,-14687.065958120373,232.20479216813055,3,A
1781599039339,-1053.8943054639092,-15538.53292416715,26.85890922427896,3,A
1781599039359,-196.5399900525306,-16510.49049861677,-347.5953479086269,3,A
1781599039381,680.8459682422914,-17205.319673739847,-782.4454529661949,3,A
1781599039402,448.4789107943477,-17687.282107351228,-271.09394053738805,3,A
1781599039424,-601.1791762980878,-18590.961670372573,1150.2216806229965,3,A
1781599039445,1185.6433689050657,-17703.347521804943,397.28677649554066,3,A
1781599039468,2026.9723700096897,-16277.541989037936,18.806129500990664,3,A
1781599039489,244.15615338322476,-14209.119878122418,1492.464818862749,3,A
1781599039511,-2536.235878838723,-12903.804953758256,3896.219566264306,3,A
1781599039532,-3085.1028938450727,-13899.860649888447,4568.626673158879,3,A
1781599039553,-192.5336614758419,-16904.093152732734,2764.8040151423,3,A
1781599039575,861.1307541932823,-18269.653381298318,2048.106619769642,3,A
1781599039597,917.2193542669239,-19133.16940818538,1540.781497202479,3,A
1781599039618,388.3839821440174,-18578.912609532286,1331.4092243969833,3,A
1781599039640,-180.51467574577586,-16209.263977609657,1266.986986610677,3,A
1781599039662,-893.6411623963618,-15221.240988706322,1528.7023276175464,3,A
1781599039683,-1001.8120339669563,-16377.950829373642,1758.206549731263,3,A
1781599039705,-565.1222191078897,-17048.68188281615,2023.9482805997768,3,A
1781599039727,79.89668173898868,-16803.68431239703,2027.974670461421,3,A
1781599039748,484.53586798454586,-16345.820000466216,2201.109434512119,3,A
1781599039770,704.8839397024235,-16132.953258954522,2241.3733331285607,3,A
1781599039792,941.257325727056,-16285.574696264792,1802.4968382093487,3,A
1781599039813,901.1940399601691,-16257.460220970795,1283.0925460572535,3,A
1781599039834,236.1434962298474,-16470.326962482486,1174.3800197928615,3,A
1781599039856,-472.9766618440499,-16088.77336920681,1375.6995128750689,3,A
1781599039878,-853.577876629475,-16032.544418618816,1605.2037349887853,3,A
1781599039899,-545.0905762244462,-15450.17314467173,1343.4883939819156,3,A
1781599039921,-108.40076136537954,-14699.115018960658,1210.6175285476588,3,A
1781599039943,-737.3943479055031,-14763.376676775508,2571.5373017833813,3,A
1781599039965,-865.596862359541,-16253.443867357368,3143.2846621368503,3,A
1781599039986,869.1434113466596,-17201.30332012642,2901.7012704382014,3,A
1781599040008,528.6054823281214,-18104.98288314776,2422.5608769025475,3,A
1781599040029,2804.2001138872947,-22426.579371196494,-1092.4774723127944,3,A
1781599040051,5680.744031949771,-23844.352196736647,-5070.550655617213,3,A
1781599040072,624.7573681686498,-15932.135578283112,-2054.784649245746,3,A
1781599040094,-5737.2924116129825,-8907.533108397207,1951.4732630901822,3,A
1781599040116,-9627.437459577695,-6208.543480173463,4794.104505410951,3,A
1781599040137,-9282.893201982468,-7863.281168905877,5007.503168078091,3,A
1781599040159,-6502.501169760521,-15309.600768201743,4798.130895272596,3,A
1781599040180,-1959.324563795552,-20956.593948681777,2269.5580621600698,3,A
1781599040202,3284.9595430899367,-25189.83065723509,365.0756576023875,3,A
1781599040224,4607.047973397202,-23804.18866060236,1210.6175285476588,3,A
1781599040245,1706.466083874595,-18402.193050541446,3400.973613282076,3,A
1781599040268,-1438.501848826023,-13964.1223077033,4371.333569938316,3,A
1781599040289,-2472.1346216117036,-12831.510588716548,3783.48065013827,3,A
1781599040310,-1750.9954778077404,-13389.783740983068,2076.291348801151,3,A
1781599040332,-825.5335765926542,-14871.818224338069,1250.8814271641002,3,A
1781599040354,-1586.7360061635043,-15570.663753074574,2313.8483506381554,3,A
1781599040375,-2075.508092519524,-16177.13314870223,3002.361016979305,3,A
1781599040397,-2876.773807857261,-16116.887844500809,2990.2818473943726,3,A
1781599040419,-2936.868736507591,-17028.600114749006,2865.463761683404,3,A
1781599040440,-2956.9003793910347,-16530.57226668391,2744.6720658340796,3,A
1781599040462,-3225.3243940291763,-15968.282760803966,3268.102747847819,3,A
1781599040484,-3161.2231368021576,-16498.441437776484,3392.9208335587873,3,A
1781599040505,-2283.8371785073355,-17185.237905672704,2865.463761683404,3,A
1781599040526,-2432.071335844817,-16695.242764834467,2639.9859294313314,3,A
1781599040548,-1746.9891492310517,-18466.454708356297,1665.5995829134476,3,A
1781599040569,-1178.0904913412585,-16904.093152732734,421.4451156654056,3,A
1781599040592,-2856.7421649738176,-19522.755708687913,1585.0717856805645,3,A
