timestamp,ax,ay,az,label,subject_id
1781599086513,-1931.2802637587313,-16466.31060886906,-2948.643198530747,5,A
1781599086514,-1947.305578065486,-16791.63525155674,-3262.701607738991,5,A
1781599086515,-1574.7170204334384,-16932.20762802673,-3516.3641690225722,5,A
1781599086516,-2083.5207496729013,-16659.095582313614,-2940.5904188074587,5,A
1781599086517,-1995.3815209857503,-16490.40873054963,-2868.115401297864,5,A
1781599086518,-1895.2233065685332,-16261.476574584223,-2860.0626215745756,5,A
1781599086519,-1406.4512202125136,-15771.481433745985,-3431.809981928045,5,A
1781599086520,-1658.8499205439007,-15699.187068704277,-3109.698792996513,5,A
1781599086521,-1610.7739776236365,-16028.528065005388,-2767.4556547567604,5,A
1781599086521,-1911.2486208752878,-16647.046521473327,-2086.995768138899,5,A
1781599086522,-1967.3372209489294,-16843.84784853131,-1869.5707156101153,5,A
1781599086522,-1767.0207921144952,-16719.340886515034,-2030.626310075881,5,A
1781599086523,-1947.305578065486,-16827.782434077595,-1857.4915460251827,5,A
1781599086524,-2227.748578433694,-17562.775145334956,-1849.4387663018945,5,A
1781599086524,-1750.9954778077404,-18370.062221634023,-2731.218146001963,5,A
1781599086525,-997.8057053902676,-19113.087640118236,-3633.1294750102525,5,A
1781599086526,-2111.565049709722,-17068.763650883287,-3013.0654363170534,5,A
1781599086527,-2740.5586362498457,-16149.018673408234,-2227.9194132964444,5,A
1781599086528,-1045.8816483105318,-13976.171368543583,-3282.8335570472113,5,A
1781599086528,-424.90071892378563,-12200.943071408323,-2759.402875033472,5,A
1781599086529,1442.0483978131417,-12570.447603843717,-3854.5809174006804,5,A
1781599086529,2363.5039704515393,-12787.330698968839,-3766.000340444509,5,A
1781599086530,4422.756858869523,-10297.191458643361,-4780.650585578835,5,A
1781599086531,4975.630202452562,-6272.805137988314,-4293.457412319893,5,A
1781599086531,2439.624213408624,-9144.49797158947,2805.0679137587417,5,A
1781599086532,-1750.9954778077404,-15377.878779630022,6461.029908131629,5,A
1781599086532,-8257.273086350164,-23466.814957074395,9951.909918177107,5,A
1781599086534,-8068.975643245797,-33005.65478896635,4665.260029838339,5,A
1781599086534,-4311.03943831181,-33005.65478896635,-2582.2417211211296,5,A
1781599086535,-11730.759962339254,-29888.964384946074,2301.7691810532233,5,A
1781599086535,-12532.025677676991,-11907.749257628066,5007.503168078091,5,A
1781599086536,-6105.874640668341,-5702.48292488151,1379.725902736713,5,A
1781599086536,-1298.280348641919,-7196.566469076797,-1656.1720529429754,5,A
1781599086537,1906.782512709029,-8542.04492957524,-3472.0738805444867,5,A
1781599086537,1173.6243831749998,-8690.650013272085,-1905.8082243649126,5,A
1781599086538,-969.7614053534469,-8437.61973562611,-573.0731801606993,5,A
1781599086539,-721.3690335987484,-10224.897093601654,-214.72448247436998,5,A
1781599086539,127.97262465925289,-10305.224165870217,-1555.5123064018715,5,A
1781599086540,-164.4893614390211,-13562.48694636048,-1909.8346142265566,5,A
1781599086540,-2339.9257785809773,-18245.555259617748,-395.91202624835665,5,A
1781599086541,-4206.874895317905,-20201.519469357278,1516.6231580326141,5,A
1781599086541,-9727.595673994912,-20599.138477086668,6332.185432559017,5,A
1781599086541,-12215.525720118585,-21808.060914728554,10519.630888668931,5,A
1781599086542,-5849.469611760265,-23820.254075056077,6936.143911805639,5,A
1781599086543,-1458.5334917094665,-22908.541804807875,4089.486279623225,5,A
1781599086544,-20.26153267822846,-20832.0869866655,1613.2565147120736,5,A
1781599086545,-3253.3686940659973,-18639.15791373371,3477.4750206533145,5,A
1781599086545,-4146.779966667574,-15309.600768201743,4335.096061183518,5,A
1781599086546,-3477.7230943605637,-11192.838314437848,3453.31668148345,5,A
1781599086547,-1995.3815209857503,-10678.745051919039,2249.426112851849,5,A
1781599086547,-376.82477600352144,-10670.712344692181,1407.910631768222,5,A
1781599086548,-873.6095195129184,-12558.398543003432,2491.009504550498,5,A
1781599086549,-296.69820446974774,-11542.2610788061,2164.871925757322,5,A
1781599086550,-1614.7803062003252,-10983.987926539581,3521.7653091314,5,A
1781599086550,-16.25520410153977,-11638.653565528377,163.75616452018002,5,A
1781599086551,6093.395875348705,-20386.271735574974,-5863.749458361111,5,A
1781599086552,9034.041050638201,-27081.533209159767,-7401.830385509175,5,A
1781599086552,853.1180970399049,-19908.32565557702,-778.4190631045508,5,A
1781599086554,-8649.893286865656,-11702.915223343227,7165.648133919355,5,A
1781599086554,-11141.829661566018,-12510.202299642293,11695.336728269023,5,A
1781599086555,-4599.495095833396,-16566.719449204764,7314.624558800188,5,A
1781599086556,1149.5864117148676,-22627.397051867905,1790.4176686244161,5,A
1781599086556,3825.813900942909,-25322.37032647822,-2449.370855686873,5,A
1781599086557,1185.6433689050657,-20631.269305994094,-2678.875077800589,5,A
1781599086557,-4427.222967035782,-14068.54750165243,727.4507451503608,5,A
1781599086558,-6562.5960984108515,-8136.393214618994,2249.426112851849,5,A
1781599086559,-6378.304983883172,-6718.620389078843,2531.2734031669397,5,A
1781599086559,-4819.843167551273,-9650.558526881421,2277.6108418833583,5,A
1781599086560,-1795.0650921513159,-14132.809159467282,1162.300850207929,5,A
1781599086560,15.795424511969708,-18438.3402330623,840.189661276397,5,A
1781599086561,1229.7129832486412,-19494.641233393915,381.1812170489641,5,A
1781599086561,2864.295042537625,-14771.409384002365,-2123.2332768936967,5,A
1781599086562,1233.71931182533,-13674.944847536468,-3005.0126565937653,5,A
1781599086563,825.0737970030841,-16100.822430047096,-4080.058749652753,5,A
1781599086563,-2075.508092519524,-18229.489845164037,-1772.9373589306556,5,A
1781599086564,-10492.804432142451,-19912.342009190448,6481.16185743985,5,A
1781599086565,-8738.032515552806,-20767.825328850653,6597.92716342753,5,A
1781599086566,-1795.0650921513159,-21695.603013552565,1967.5788225367587,5,A
1781599086566,4919.54160237892,-22213.7126296848,-2992.933487008833,5,A
1781599086567,4290.548015838796,-21848.224450862836,-1603.8289847416013,5,A
1781599086568,-2159.640992629986,-18900.22089860654,3578.134767194418,5,A
1781599086569,-2908.8244364707703,-13128.720756110235,2792.988744173809,5,A
1781599086569,-1734.9701635009858,-10132.520960492804,1585.0717856805645,5,A
1781599086570,328.28905349368716,-8529.995868734957,-472.4134336195955,5,A
1781599086570,1666.402798107708,-9104.334435455188,-1909.8346142265566,5,A
1781599086572,1105.5167973712921,-9570.231454612858,-1305.8761349799342,5,A
1781599086572,588.7004109784517,-7574.103708739048,-790.4982326894833,5,A
1781599086572,4198.402458574957,-702.1226761634134,-5843.6175090528905,5,A
1781599086573,1169.6180545983111,-9453.75719982344,-5553.717439014511,5,A
1781599086574,-13986.322951014983,-33005.65478896635,9134.552776263345,5,A
1781599086576,-19346.790586624444,-33005.65478896635,12665.696684925264,5,A
1781599086578,-6622.691027061182,-33005.65478896635,2305.7955709148673,5,A
1781599086580,424.4409393342156,-23747.95971001437,-1072.3455230045736,5,A
1781599086582,1502.1433264634718,-17301.712160462124,-3137.883522028022,5,A
1781599086583,380.37132499064006,-10321.28958032393,-150.30224468806358,5,A
1781599086586,-8.242546948162403,3390.541655919913,-2066.8638188306786,5,A
1781599086589,-597.1728477213991,5065.361112719468,-1833.333206855318,5,A
1781599086606,1558.2319265371134,1406.4629708863865,-3910.9503754636985,5,A
1781599086628,-1991.3751924090616,-1750.3909692681711,-2010.4943607676603,5,A
1781599086649,-5232.495010950208,-5654.286681520372,-2739.2709257252513,5,A
1781599086670,-7576.197228313089,-26073.42845218929,-218.7508723360141,5,A
1781599086693,-4258.957166814857,-33005.65478896635,-669.7065368401588,5,A
1781599086714,-2363.963750041109,-33005.65478896635,2152.7927561723895,5,A
1781599086736,-9162.703344681808,-26908.830003782354,9903.593239837377,5,A
1781599086758,-3541.824351587583,-20940.528534228062,2172.9247054806106,5,A
1781599086779,264.1877962666682,-18623.09249928,-3359.3349644184505,5,A
1781599086801,1582.2698979972456,-13357.652912075642,-4877.283942258295,5,A
1781599086822,-232.59694724272876,-9614.411344360567,-2727.191756140319,5,A
1781599086844,-360.7994616967667,-7855.248461679021,-1946.072122981354,5,A
1781599086865,3701.61771506556,-9172.612446883468,-2626.532009599215,5,A
1781599086887,6165.509789729102,-9184.661507723751,-2469.5028049950934,5,A
1781599086908,3256.915243053116,334.0965561010598,-1752.8054096224348,5,A
1781599086930,-2792.6409077467983,647.3721379484587,393.26038663389653,5,A
1781599086952,-8525.697100988305,-11598.490029394094,3481.501410514959,5,A
1781599086973,-13906.19637948121,-33005.65478896635,10133.097461951094,5,A
1781599086996,-6326.2227123862185,-33005.65478896635,803.9521525215997,5,A
1781599087018,-5657.1658400792085,-33005.65478896635,2450.7456059340566,5,A
1781599087039,-7187.583356374286,-17631.053156763235,7576.339899807058,5,A
1781599087060,-0.22988979478503244,-7995.820838149008,3159.390221583427,5,A
1781599087082,6566.14264739797,-5100.029882867282,-3894.844816017122,5,A
1781599087104,6606.205933164857,-906.9567104482511,-5304.0812675925745,5,A
1781599087125,2936.408956918021,-2384.974840189825,-4671.938059314442,5,A
1781599087147,1778.579998254991,-3417.17771884087,-5972.461984625503,5,A
1781599087169,-3982.520495023338,-3136.0329659008967,-2650.69034876908,5,A
1781599087190,-10929.494247001518,-3429.2267796811548,3880.1140068177297,5,A
1781599087212,-6855.058084509125,-12385.695337626019,795.8993727983114,5,A
1781599087234,3533.3519148446353,-20743.727207170083,-1028.055234526488,5,A
1781599087254,99.9283246224321,-33005.65478896635,8168.219209468748,5,A
1781599087277,-549.0969048011349,-33005.65478896635,10177.38775042918,5,A
1781599087298,2115.1115986968407,-33005.65478896635,1778.3384990394838,5,A
1781599087320,-6234.077155122379,-19844.06399776217,2189.030264927187,5,A
1781599087342,-12848.525635235397,-11333.410690907835,2189.030264927187,5,A
1781599087363,-10693.120860976886,-11606.522736620951,2144.7399764491015,5,A
1781599087385,-5613.096225735633,-10389.56759175221,1041.5091543586045,5,A
1781599087407,-533.0715904943802,-9646.542173267993,-1422.6414409676147,5,A
1781599087428,3236.8836001696727,-10373.502177298496,-2038.6790897991693,5,A
1781599087449,3292.972200243314,-7284.926248572217,-234.8564317825907,5,A
1781599087471,2756.1241709670303,-3762.584129595695,-29.510548838739123,5,A
1781599087492,2363.5039704515393,-2405.0566082569662,-1032.0816243881322,5,A
1781599087514,268.19412484335686,-10293.175105029932,-1217.295558023763,5,A
1781599087536,-4903.976067661735,-24587.37761522086,3340.5777653574137,5,A
1781599087558,-3617.944594544668,-33005.65478896635,1846.7871266874342,5,A
1781599087580,-11382.209376167339,-33005.65478896635,8293.037295179718,5,A
1781599087601,-11125.804347259264,-28226.1939889868,9186.895844464718,5,A
1781599087622,139.99161038931894,-21406.425553385732,2156.8191460340336,5,A
1781599087644,4414.744201716146,-12771.265284515126,-1479.0108990306328,5,A
1781599087666,1602.3015408806891,-10847.431903683022,-1938.0193432580656,5,A
1781599087687,-2476.1409501883923,-7590.16912319276,-907.2635386771636,5,A
1781599087710,-2464.1219644583266,-5598.057730932378,-1845.4123764402502,5,A
1781599087732,-537.0779190710689,-4951.424799170439,-4994.049248245975,5,A
1781599087753,-3012.988979464676,-5152.242479841849,-3234.5168787074817,5,A
1781599087775,-7684.3680998836835,-1521.4588133027642,-609.3106889154966,5,A
1781599087797,-7624.2731712333525,-6678.4568529445605,-391.8856363867125,5,A
1781599087819,-673.2930906784842,-17920.230616930065,-3423.7572022047566,5,A
1781599087840,-1951.3119066421748,-33005.65478896635,5840.96586943843,5,A
1781599087862,-3397.59652282679,-33005.65478896635,11832.233983564924,5,A
1781599087883,-2263.805535623892,-33005.65478896635,5687.963054695952,5,A
1781599087905,-4703.659638827301,-21880.35527977026,2982.229067671084,5,A
1781599087927,-10617.0006180198,-15253.371817613748,5160.5059828205685,5,A
1781599087948,-7075.406156227003,-11831.438538972929,1701.837091668245,5,A
1781599087970,1337.8838548192357,-10606.450686877331,-3335.1766252485854,5,A
1781599087991,3325.0228288568237,-5236.58590572384,-3862.633697123969,5,A
1781599088013,2435.6178848319355,-5565.926902024952,-1821.2540372703854,5,A
1781599088035,3381.111428930465,-6180.4290048794655,-738.1551644881093,5,A
1781599088056,5953.174375164601,-4441.347890265059,-2449.370855686873,5,A
1781599088078,8348.958864024436,-3441.2758405214395,-4373.985209552776,5,A
1781599088100,3541.3645719980127,-2409.0729618703945,-1382.3775423511731,5,A
1781599088121,-3357.533237059903,-12096.51787745919,1395.8314621832897,5,A
1781599088145,-3750.1534375753945,-33005.65478896635,4894.764251952055,5,A
1781599088165,-3241.349708335931,-33005.65478896635,5446.379662997303,5,A
1781599088186,-2083.5207496729013,-33005.65478896635,4725.655877763001,5,A
1781599088208,-0.22988979478503244,-31503.538537544206,1923.2885340586731,5,A
1781599088230,-232.59694724272876,-19848.080351375596,1315.3036649504065,5,A
1781599088252,4767.3011164647505,-11996.109037123486,-5610.086897077529,5,A
1781599088273,6606.205933164857,-6329.034088576308,-8086.3166619886815,5,A
1781599088294,256.1751391132908,2257.929936933163,-4378.01159941442,5,A
1781599088316,-4619.526738716839,4049.223648522136,-2147.3916160635613,5,A
1781599088338,-4122.741995207442,-870.8095279273974,-2582.2417211211296,5,A
1781599088360,-4307.033109735122,-4979.539274464436,-713.9968253182444,5,A
1781599088381,-3778.197737612215,-2858.9045665743515,-1418.6150511059705,5,A
1781599088403,-3986.5268236000265,-8224.752994114415,-2433.265296240296,5,A
1781599088425,-725.3753621754371,-19076.940457597382,-3633.1294750102525,5,A
1781599088446,3004.516542721729,-33005.65478896635,1150.2216806229965,5,A
1781599088468,-865.596862359541,-33005.65478896635,5961.757565287755,5,A
1781599088489,1177.6307117516883,-33005.65478896635,739.5299147352933,5,A
1781599088511,-7363.861813748588,-25711.956626980755,4017.0112621136304,5,A
1781599088532,-15572.829067383704,-18233.506198777464,5402.089374519218,5,A
1781599088554,-8457.589515184598,-16402.04895105421,-923.3690981237402,5,A
1781599088576,-3750.1534375753945,-11706.931576956655,-1692.4095616977727,5,A
1781599088597,292.23209630348896,-7184.517408236513,-2215.840243711512,5,A
1781599088618,1998.9280699728688,-7377.302381681066,-1003.8968953566232,5,A
1781599088640,2251.326770304256,-5108.062590094139,103.36031659551779,5,A
1781599088662,4426.763187446212,-6481.655525886579,-3065.4085045184274,5,A
1781599088683,6465.984432980753,-8176.556750753276,-5143.025673126808,5,A
1781599088705,4591.0226590904485,-1959.241357166437,-4816.888094333633,5,A
1781599088726,-1266.2297200284095,-7027.879617312813,-476.43982348123967,5,A
1781599088748,-5212.463368066765,-25462.942702948207,4536.415554265725,5,A
1781599088770,-8157.114871932948,-33005.65478896635,5261.165729361673,5,A
1781599088792,-8629.861643982213,-33005.65478896635,5772.51724179048,5,A
1781599088814,-5156.374767993123,-33005.65478896635,2664.1442686011965,5,A
1781599088835,-5773.34936880318,-21342.163895570884,2797.0151340354532,5,A
1781599088857,-3245.35603691262,-15723.285190384846,981.1133064339423,5,A
1781599088878,280.2131105734229,-11128.576656622996,-2884.2209607444406,5,A
1781599088899,188.06755330958316,-7264.844480505077,-3097.6196234115805,5,A
1781599088921,-1538.66006324324,-3280.621695984312,-1776.9637487922998,5,A
1781599088944,-749.4133336355692,-4698.394521524463,-2030.626310075881,5,A
1781599088965,1069.4598401810938,-8678.6009524318,-2139.3388363402732,5,A
1781599088987,885.1687256534144,-7116.239396808233,-2195.7082944032913,5,A
1781599089008,-3525.799037280828,-4979.539274464436,284.5478603695045,5,A
1781599089030,-5440.8240969380195,-7811.0685719313105,590.5534898544598,5,A
1781599089050,-4867.919110471537,-21386.343785318593,-303.30505943054123,5,A
1781599089072,1534.1939550769814,-33005.65478896635,558.3423709613066,5,A
1781599089094,-581.1475334146444,-33005.65478896635,3058.730475042323,5,A
1781599089116,-2900.811779317393,-33005.65478896635,2116.5552474175925,5,A
1781599089137,-4607.507752986773,-23735.910649174086,1017.3508151887396,5,A
1781599089159,-7267.70992790806,-13988.220429383868,1399.8578520449337,5,A
1781599089181,-6490.482184030455,-12389.711691239449,373.12843732567575,5,A
1781599089203,-2143.615678323232,-10285.142397803076,-1889.7026649183358,5,A
1781599089224,-1658.8499205439007,-6919.438069750252,-995.8441156333348,5,A
1781599089245,-1742.982820654363,-7650.414427394183,1142.1689008997082,5,A
1781599089267,143.99793896600764,-9068.187252934335,1504.5439884476816,5,A
1781599089289,1578.263569420557,-9682.689355788847,1516.6231580326141,5,A
1781599089311,3136.7253857524556,-7678.52890268818,-1527.3275773703626,5,A
1781599089333,4683.168216354288,-7879.34658335959,-3323.097455663653,5,A
1781599089353,4498.877101826608,-11831.438538972929,-4780.650585578835,5,A
1781599089375,1157.599068868245,-18972.51526364825,-3298.939116493788,5,A
1781599089397,-2203.710606973562,-33005.65478896635,-1527.3275773703626,5,A
1781599089419,-10260.437374694508,-33005.65478896635,3988.8265330821214,5,A
1781599089441,-14026.386236781871,-28274.390232347938,6215.4201265713355,5,A
1781599089462,-7235.659299294551,-18221.457137937177,3904.2723459875942,5,A
1781599089483,-1049.8879768872205,-12976.099318799963,248.31035161470714,5,A
1781599089505,3613.478486378409,-11200.871021664703,-3480.1266602677747,5,A
1781599089527,3585.434186341588,-9297.119408899742,-3701.578102658203,5,A
1781599089549,-1678.8815634273442,-7409.433210588491,699.2660161188518,5,A
1781599089570,-1254.2107342983434,-8590.24117293638,-424.0967552798657,5,A
1781599089592,-88.3691184819361,-10377.518530911924,-1684.3567819744844,5,A
1781599089613,-1254.2107342983434,-9092.285374614903,-3113.725182858157,5,A
1781599089635,-2636.39409325594,-8148.442275459279,-3786.1322897527302,5,A
1781599089656,-6045.779712018011,-9184.661507723751,-3302.9655063554324,5,A
1781599089679,-5260.539310987028,-17305.728514075552,-3327.123845525297,5,A
1781599089700,-4158.79895239764,-27077.51685554634,83.22836728729705,5,A
1781599089721,-4375.140695538829,-33005.65478896635,4298.858552428721,5,A
1781599089743,-7884.684528718118,-33005.65478896635,9283.529201144178,5,A
1781599089765,1329.8711976658585,-25687.858505300184,1391.8050723216454,5,A
1781599089786,2447.6368705620016,-17016.551053908723,-2904.3529100526616,5,A
1781599089808,-5769.343040226491,-12052.33798771148,-399.93841611000084,5,A
1781599089830,-11482.367590584556,-10261.044276122508,3545.923648301265,5,A
1781599089851,-6358.273340999728,-11518.16295712553,-218.7508723360141,5,A
1781599089873,-2319.894135697534,-13550.437885520196,-1422.6414409676147,5,A
1781599089895,-1033.862662580466,-13265.276778966794,-1454.8525598607678,5,A
1781599089916,2367.510299028228,-11297.26350838698,-2368.8430584539897,5,A
1781599089938,2671.991270856568,-12325.450033424597,-2227.9194132964444,5,A
1781599089959,1714.4787410279723,-6726.653096305699,-2191.681904541647,5,A
1781599089981,-160.48303286233244,-6947.55254504425,-947.5274372936051,5,A
1781599090003,-1045.8816483105318,-11413.737763176397,-407.9911958332891,5,A
1781599090025,-3742.140780422017,-24679.75374832971,4363.280790215027,5,A
1781599090046,-6630.703684214559,-33005.65478896635,4000.905702667054,5,A
1781599090068,-8629.861643982213,-33005.65478896635,6142.945109061741,5,A
1781599090089,-3930.438223526385,-25904.741600425306,2402.428927594327,5,A
1781599090111,-0.22988979478503244,-15173.044745345183,1186.4591893777938,5,A
1781599090133,4338.623958759061,-12269.221082836602,-3709.630882381491,5,A
1781599090154,2315.428027531275,-12140.6977672069,-1760.858189345723,5,A
1781599090176,-2556.2675217221663,-11823.405831746073,787.8465930750231,5,A
1781599090198,-2147.62200689992,-10967.922512085868,-1515.2484077854301,5,A
1781599090219,-1065.9132911939753,-10092.357424358523,-3286.859946908856,5,A
1781599090241,-3585.893965931158,-7662.463488234467,-1986.3360215977955,5,A
1781599090262,-4447.254609919226,-9052.121838480622,-1430.694220690903,5,A
1781599090284,-3197.280093992356,-9514.002504024864,-1821.2540372703854,5,A
1781599090306,-1618.786634777014,-11204.887375278131,-3153.9890814745986,5,A
1781599090327,628.7636967453385,-15590.745521141716,-2791.6139939266254,5,A
1781599090349,917.2193542669239,-18856.041008858832,-2497.6875340266024,5,A
1781599090371,-3878.355952029432,-26768.257627312367,3855.9556676478646,5,A
1781599090393,-7816.576942914409,-33005.65478896635,7052.909217793319,5,A
1781599090414,-4964.070996312066,-29539.54162057782,2185.0038750655426,5,A
1781599090435,-3549.83700874096,-21538.965222628864,751.6090843202257,5,A
1781599090457,-4483.311567109424,-17197.28696651299,-492.54538292781626,5,A
1781599090479,-2556.2675217221663,-16193.198563155944,-875.0524197840103,5,A
1781599090500,-5092.273510766104,-10397.600298979065,2648.03870915462,5,A
1781599090522,-4383.153352692207,-6236.65795546746,2466.851165380633,5,A
1781599090544,-1334.3373058321172,-8698.68272049894,1456.2273101079518,5,A
1781599090565,821.0674684263954,-9835.31079309912,71.1491977023646,5,A
1781599090586,-40.29317556167188,-10285.142397803076,-508.65094237439286,5,A
1781599090608,2239.30778457419,-11381.606934268972,-5336.292386485728,5,A
1781599090630,2002.9343985495575,-11289.230801160124,-5114.840944095299,5,A
1781599090653,-1126.0082198443056,-11943.89644014892,-4780.650585578835,5,A
1781599090673,-9879.836159909082,-23735.910649174086,2362.1650289778854,5,A
1781599090695,-9342.988130632797,-33005.65478896635,3868.034837232797,5,A
1781599090717,-12011.202962707463,-31174.197541243095,8031.321954172847,5,A
1781599090738,-7255.690942177994,-23181.653850520994,6179.182617816538,5,A
1781599090760,-1246.1980771449662,-17108.92718701757,2402.428927594327,5,A
1781599090781,2972.4659141082193,-17309.74486768898,-641.5218078086498,5,A
1781599090803,4314.585987298929,-16683.19370399418,-1877.6234953334035,5,A
1781599090825,1181.637040328377,-12217.008485862036,-665.6801469785147,5,A
1781599090846,-2452.1029787282605,-8614.339294616948,10.753349777702367,5,A
1781599090868,-3397.59652282679,-6100.101932610902,-343.56895804698274,5,A
1781599090889,-3313.463622716328,-8405.488906718683,-1406.5358815210382,5,A
1781599090911,-1053.8943054639092,-11389.639641495829,-3472.0738805444867,5,A
1781599090933,-2392.00805007793,-8658.519184364659,-1418.6150511059705,5,A
1781599090955,-4679.62166736717,-7839.183047225308,413.39233594211726,5,A
1781599090976,-3778.197737612215,-10803.252013935313,111.41309631880608,5,A
1781599090998,-2119.5777068630996,-20197.50311574385,-2002.441581044372,5,A
1781599091019,-4835.868481858028,-28884.875981589026,2603.7484206765344,5,A
1781599091041,-11858.962476793293,-28061.523490836247,7085.120336686472,5,A
1781599091063,-10376.62090341848,-24165.660485810902,5957.73117542611,5,A
1781599091084,-7460.013699589117,-19040.79327507653,2084.344128524439,5,A
1781599091106,-8309.355357847116,-18100.966529534333,1826.6551773792135,5,A
1781599091128,-5833.44429745351,-17141.058015924995,-214.72448247436998,5,A
1781599091149,-2976.932022274478,-14329.610486525264,-57.69527787024816,5,A
1781599091170,424.4409393342156,-12610.611139977998,-319.4106188771178,5,A
1781599091192,2127.130584426907,-10738.990356120461,159.7297746585359,5,A
1781599091213,3613.478486378409,-9361.381066714592,-1020.0024548031997,5,A
1781599091235,5620.64910329944,-9718.8365383097,-4164.61293674728,5,A
1781599091257,5760.870603483544,-6738.702157145984,-5529.559099844647,5,A
1781599091279,648.795339628782,-3577.8318633779977,-2078.942988415611,5,A
1781599091300,-1466.546148862844,-6919.438069750252,-1603.8289847416013,5,A
1781599091322,-7716.418728497192,-23482.880371528106,3654.6361745656573,5,A
1781599091343,-5909.564540410595,-33005.65478896635,3908.2987358492387,5,A
1781599091366,-5821.425311723445,-33005.65478896635,3090.9415939354762,5,A
1781599091387,-8581.785701061948,-29302.576757385556,7757.527443581045,5,A
1781599091409,-3914.4129092196304,-21771.9137322077,5655.751935802799,5,A
1781599091430,139.99161038931894,-19068.907750370527,2189.030264927187,5,A
1781599091452,4759.288459311373,-15305.584414588315,-2546.004212366332,5,A
1781599091473,4214.4277728817115,-10289.158751416504,-2916.4320796375937,5,A
1781599091494,-136.44506140220034,-5200.438723202987,-327.46339860040615,5,A
1781599091516,-5168.393753723189,-838.6786990199719,1516.6231580326141,5,A
1781599091538,-5749.311397343048,-4188.317612619083,22.832519362634812,5,A
1781599091560,-3217.3117368757994,-9815.229025031978,-2441.3180759635843,5,A
1781599091581,-96.38177563531347,-10353.420409231356,-4454.513006785659,5,A
1781599091604,-1783.04610642125,-8807.124268061501,-4176.6921063322125,5,A
1781599091625,-3293.4319798328843,-10493.992785701343,-3286.859946908856,5,A
1781599091647,-7175.56437064422,-18546.78178062486,1585.0717856805645,5,A
1781599091668,-224.5842900893514,-33005.65478896635,296.6270299544369,5,A
1781599091689,127.97262465925289,-33005.65478896635,2881.5693211299804,5,A
1781599091710,-3305.4509655629504,-32081.893457877864,5857.071428885007,5,A
1781599091733,-1666.862577697278,-22310.105116407078,1770.2857193161954,5,A
1781599091754,-6971.241613233097,-16321.721878785645,2937.9387791929985,5,A
1781599091776,-7127.488427723956,-15285.502646521174,997.2188658805188,5,A
1781599091797,-5577.039268545434,-15811.644969880266,912.6646787859917,5,A
1781599091819,-4291.007795428367,-12004.141744350341,1101.9050022832666,5,A
1781599091841,-805.5019337092108,-9959.817755115393,-190.5661433045051,5,A
1781599091863,1642.364826647576,-7999.837191762435,-887.1315893689429,5,A
1781599091883,1810.6306268685007,-6730.669449919127,-1007.9232852182673,5,A
1781599091906,1305.8332262057263,-8248.851115794983,-548.9148409908344,5,A
1781599091927,2159.1812130404164,-7192.550115463369,-2767.4556547567604,5,A
1781599091948,2251.326770304256,-5598.057730932378,-3681.446153349982,5,A
1781599091970,-2215.729592703628,-9518.018857638292,-4067.9795800678203,5,A
1781599091992,-9887.848817062459,-33005.65478896635,1097.8786124216226,5,A
1781599092013,4286.541687262108,-33005.65478896635,-7647.440167069469,5,A
1781599092036,-11005.614489958602,-33005.65478896635,5651.725545941155,5,A
1781599092057,-8173.140186239702,-20040.865324820148,5941.625615979534,5,A
1781599092078,-396.8564188869649,-16217.296684836514,2913.780440023134,5,A
1781599092100,6373.838875716913,-16357.869061306501,-2006.4679709060163,5,A
1781599092122,7259.237491165112,-14237.234353416416,-2477.555584718382,5,A
1781599092144,3100.6684285622573,-10751.039416960746,-126.1439055181987,5,A
1781599092165,953.276311457122,-6031.823921182622,-1362.2455930429524,5,A
1781599092186,-312.7235187765025,-4642.165570936469,-2839.930672266355,5,A
1781599092209,-4499.336881416179,-6586.080719835712,-1237.4275073319839,5,A
1781599092229,-5649.153182925831,-8373.358077811257,-1100.5302520360826,5,A
1781599092252,-5160.381096569811,-9871.457975619973,-2771.4820446184044,5,A
1781599092273,-2636.39409325594,-15325.666182655455,-5022.233977277484,5,A
1781599092295,-1891.2169779918445,-24410.65805623002,-3560.654457500658,5,A
1781599092316,4542.946716170184,-31836.895887458744,-2481.581974580026,5,A
1781599092338,-2844.7231792437515,-28627.82935032962,7435.416254649513,5,A
1781599092359,-5392.748154017755,-24920.7349651354,7757.527443581045,5,A
1781599092381,785.0105112361972,-20579.056709019525,-786.4718428278392,5,A
1781599092403,-2147.62200689992,-18570.87990230543,-1523.3011875087184,5,A
1781599092425,-5849.469611760265,-16241.394806517083,-480.4662133428838,5,A
1781599092446,-5228.488682373519,-14201.087170895562,-110.0383460716221,5,A
1781599092467,-1606.7676490469478,-11951.929147375775,-778.4190631045508,5,A
1781599092489,2475.6811705988225,-8995.892887892627,-1668.2512225279077,5,A
1781599092511,1638.3584980708872,-6196.494419333178,381.1812170489641,5,A
1781599092532,1301.8268976290376,-6746.73486437284,99.33392673387364,5,A
1781599092554,5324.180788624478,-7011.814202859101,-4128.375427992482,5,A
1781599092575,2848.26972823087,-637.8610183485623,-3649.235034456829,5,A
1781599092598,-2331.9131214276,-12164.79588888747,-210.69809261272582,5,A
1781599092619,-745.4070050588805,-33005.65478896635,2148.7663663107455,5,A
1781599092640,-3477.7230943605637,-33005.65478896635,3851.9292777862206,5,A
1781599092662,-12067.291562781103,-33005.65478896635,10410.91836240454,5,A
1781599092684,508.57383944467796,-21860.27351170312,3143.2846621368503,5,A
1781599092705,3501.3012862311257,-13919.942417955588,1794.4440584860604,5,A
1781599092727,8817.699307497012,-11626.604504688092,-3834.44896809246,5,A
1781599092748,8064.509535079538,-8770.977085540648,-3894.844816017122,5,A
1781599092770,176.0485675795171,-5565.926902024952,775.7674234900907,5,A
1781599092791,-2191.691621243496,-5288.798502698407,-448.2550944497306,5,A
1781599092814,-3605.9256088146017,-6794.931107733978,-1293.796965395002,5,A
1781599092835,-1702.9195348874762,-7481.727575630199,-3286.859946908856,5,A
1781599092856,-3613.938265967979,-5710.515632108367,-2030.626310075881,5,A
1781599092878,-7540.14027112289,-13104.622634429667,-858.9468603374338,5,A
1781599092899,-1738.9764920776745,-28153.899623945093,-3697.5517127965586,5,A
1781599092921,3136.7253857524556,-33005.65478896635,-669.7065368401588,5,A
1781599092943,-6810.98847016555,-32238.531248801562,10463.261430605913,5,A
1781599092965,-3798.2293804956585,-24503.03418933887,7789.738562474198,5,A
1781599092986,1333.8775262425472,-16707.29182567475,2092.3969082477274,5,A
1781599093008,3284.9595430899367,-13767.320980645318,-2328.579159837548,5,A
1781599093029,-833.5462337460316,-13269.293132580222,-295.25227970725297,5,A
1781599093051,-7035.3428704601165,-13385.767387369639,2893.648490714913,5,A
1781599093073,-6542.5644555274075,-13542.405178293338,2185.0038750655426,5,A
1781599093095,-2071.501763942835,-13602.65048249476,361.04926774074335,5,A
1781599093116,985.3269400706315,-10654.64693023847,-403.964805971645,5,A
1781599093138,2832.244413924115,-8799.091560834646,-850.8940806141455,5,A
1781599093159,628.7636967453385,-8517.946807894672,940.8494078175007,5,A
1781599093180,1401.9851120462547,-8754.911671086935,-214.72448247436998,5,A
1781599093202,3505.3076148078144,-7060.010446220239,-2860.0626215745756,5,A
1781599093223,648.795339628782,-11751.111466704366,-2099.0749377238317,5,A
1781599093245,-2812.672550630242,-33005.65478896635,1158.2744603462847,5,A
1781599093267,2399.560927641737,-33005.65478896635,-2586.2681109827736,5,A
1781599093289,-12752.373749394868,-29258.396867637846,9891.514070252444,5,A
1781599093310,-9919.899445675968,-17956.37779945092,6758.982757893296,5,A
1781599093332,-841.5588908994089,-11955.945500989203,2438.666436349124,5,A
1781599093354,7411.477977079282,-15414.025962150876,-3512.3377791609278,5,A
1781599093376,3697.611386488871,-13441.996337957633,-907.2635386771636,5,A
1781599093398,-4006.55846648347,-10498.00913931477,3727.111192075252,5,A
1781599093419,-4262.963495391546,-8871.385925876353,2229.294163543628,5,A
1781599093441,-1294.2740200652304,-7437.547685882489,-750.2343340730417,5,A
1781599093463,-56.318489868426624,-10469.894664020772,-2155.44439578685,5,A
1781599093485,-2115.571378286411,-14088.629269719573,-1487.063678753921,5,A
1781599093507,-3393.5901942501014,-15803.61226265341,-1901.7818345032683,5,A
1781599093528,-657.2677763717294,-15490.336680806011,-4615.568601251424,5,A
1781599093549,356.33335353050796,-15056.570490555767,-4587.383872219915,5,A
1781599093571,-2724.533321943091,-17020.56740752215,-1583.6970354333805,5,A
1781599093594,-4515.362195722933,-20703.5636710358,3034.572135872458,5,A
1781599093614,-5961.646811907549,-20016.76720313958,9396.268117270214,5,A
1781599093636,-3898.3875949128756,-20623.23659876724,9424.452846301723,5,A
1781599093657,2848.26972823087,-22024.944009853676,2945.991558916287,5,A
1781599093678,2387.5419419116715,-23824.270428669504,-560.9940105757668,5,A
1781599093701,-2428.0650072681283,-26254.16436479356,377.15482718731994,5,A
1781599093723,-7291.747899368192,-17932.279677770348,2688.3026077710615,5,A
1781599093743,-7435.975728128985,-10273.093336962791,1182.4327995161498,5,A
1781599093765,-3870.343294876055,-8204.671226047274,751.6090843202257,5,A
1781599093787,-1919.2612780286652,-6883.290887229398,-581.1259598839875,5,A
1781599093809,87.90933889236604,-8252.867469408411,324.81175898594597,5,A
1781599093830,4747.269473581307,-7622.299952100186,-1801.1220879621646,5,A
1781599093852,5276.104845704213,-2609.890642541804,-2123.2332768936967,5,A
1781599093874,877.156068500037,-5794.859057990359,908.6382889243475,5,A
1781599093895,-7083.41881338038,-25418.762813200497,9879.434900667513,5,A
1781599093917,-2019.4194924458823,-33005.65478896635,2579.5900815066693,5,A
1781599093939,-5729.279754459605,-33005.65478896635,284.5478603695045,5,A
1781599093960,-10220.37408892762,-24125.496949676617,7830.002461090639,5,A
1781599093982,-5116.311482226236,-12425.858873760302,3912.3251257108827,5,A
1781599094003,1029.396554414207,-12381.678984012591,1202.5647488243706,5,A
1781599094025,5203.990931323817,-12032.25621964434,-2256.1041423279535,5,A
1781599094046,400.40296787408346,-8558.110344028953,240.25757189141885,5,A
1781599094068,-765.4386479423239,-4790.770654633311,-818.6829617209924,5,A
1781599094090,-1005.818362543645,-3336.8506465723062,-2791.6139939266254,5,A
1781599094111,-1294.2740200652304,-5140.193419001564,-2731.218146001963,5,A
1781599094133,-3734.1281232686397,-4465.446011945628,-2018.5471404909488,5,A
1781599094155,-7351.842828018523,-2750.4630190117905,481.8409635900678,5,A
1781599094176,-6999.285913269918,-8204.671226047274,1375.6995128750689,5,A
1781599094198,1145.580083138179,-21723.71748884656,1468.3064796928843,5,A
1781599094219,3557.3898863047675,-30848.872898555408,8401.74982144411,5,A
1781599094241,-2860.7484935505063,-33005.65478896635,12138.23961304988,5,A
1781599094262,380.37132499064006,-33005.65478896635,3082.888814212188,5,A
1781599094285,-7111.463113417201,-22539.037272372483,1613.2565147120736,5,A
1781599094305,-11466.342276277801,-8003.853545375864,2676.223438186129,5,A
1781599094328,-11450.316961971046,-6658.37508487742,2813.12069348203,5,A
1781599094349,-6101.868312091652,-6405.344807231444,731.4771350120051,5,A
1781599094370,-172.50201859239849,-8216.720286887557,-1080.398302727862,5,A
1781599094392,2467.668513445445,-10783.170245868172,-1080.398302727862,5,A
1781599094413,2547.7950849792187,-7554.021940671906,-387.8592465250684,5,A
1781599094435,276.20678199673426,-3987.4999319476733,993.1924760188747,5,A
1781599094457,1654.383812377642,-1421.0499729670596,-182.5133635812168,5,A
1781599094478,2439.624213408624,-4336.922696315926,-2219.866633573156,5,A
1781599094500,-4639.558381600283,-20635.28565960752,2797.0151340354532,5,A
1781599094522,-2319.894135697534,-33005.65478896635,2370.2178087011735,5,A
1781599094543,-6318.210055232841,-33005.65478896635,3843.876498062932,5,A
1781599094565,-8313.361686423807,-31523.620305611345,6432.84517910012,5,A
1781599094586,-4823.849496127962,-18779.730290203697,5543.013019676763,5,A
1781599094608,248.16248195991344,-11196.854668051275,3308.36664646426,5,A
1781599094630,2411.5799133718033,-10104.406485198808,-371.7536870784918,5,A
1781599094651,2463.6621848687564,-7598.201830419616,-1140.7941506525242,5,A
1781599094672,-1594.7486633168817,-6449.524696979154,95.30753687222949,5,A
1781599094694,-3986.5268236000265,-8228.769347727843,-291.2258898456088,5,A
1781599094716,-3225.3243940291763,-9152.530678816327,-1676.304002251196,5,A
1781599094738,-2832.7041935136854,-10052.193888224241,-2425.2125165170078,5,A
1781599094759,-3902.3939234895643,-11004.069694606722,-335.5161783236944,5,A
1781599094781,-5264.5456395637175,-12835.526942329978,707.3187958421402,5,A
1781599094802,-2472.1346216117036,-19639.22996347733,-1173.0052695456775,5,A
1781599094824,5496.452917422091,-26989.15707605092,-3431.809981928045,5,A
1781599094846,-436.91970465385174,-28169.96503839881,3980.7737533588333,5,A
1781599094867,-4379.1470241155175,-27535.381167477153,8989.602741244154,5,A
1781599094889,-705.3437192919936,-24338.36369118831,5824.860309991854,5,A
1781599094910,3164.769685789276,-17361.957464663545,1645.4676336052269,5,A
1781599094932,1189.6496974817544,-15144.930270051187,1548.8342769257672,5,A
1781599094954,-1971.343549525618,-14907.965406858923,2933.9123893313545,5,A
1781599094975,-3385.577537096724,-13662.895786696185,3847.902887924576,5,A
1781599094997,-1526.641077513174,-12309.384618970884,2631.9331497080434,5,A
1781599095019,1858.706569788765,-12068.403402165193,626.7909986092571,5,A
1781599095040,4178.370815691514,-10895.62814704416,-1841.3859865786062,5,A
1781599095062,3140.7317143291443,-10208.831679147941,-2195.7082944032913,5,A
1781599095083,704.8839397024235,-10783.170245868172,-1692.4095616977727,5,A
1781599095105,1722.4913981813495,-10759.072124187602,-3484.1530501294187,5,A
1781599095126,-513.0399476109367,-11088.413120488714,-2203.7610741265794,5,A
1781599095148,-8.242546948162403,-12060.370694938336,-689.8384861483795,5,A
1781599095171,-6706.823927171644,-18454.405647516014,5861.097818746651,5,A
1781599095191,-3345.514251329837,-33005.65478896635,1951.4732630901822,5,A
1781599095213,-1406.4512202125136,-33005.65478896635,1311.2772750887625,5,A
1781599095235,-7163.545384914154,-28113.736087810812,5760.438072205547,5,A
1781599095256,-6494.488512607144,-13554.454239133624,5426.247713689083,5,A
1781599095278,-2976.932022274478,-8188.60581159356,3908.2987358492387,5,A
1781599095299,600.7193967085177,-10257.027922509078,1955.4996529518262,5,A
1781599095321,3216.851957286229,-12196.926717794895,820.0577119681762,5,A
1781599095343,1826.6559411752553,-14281.414243164125,1762.232939592907,5,A
1781599095364,1826.6559411752553,-14080.596562492716,288.57425023114865,5,A
1781599095386,1854.7002412120762,-13506.257995772485,-1189.110828992254,5,A
1781599095407,-521.0526047643141,-13811.500870393027,-617.3634686387849,5,A
1781599095429,-1258.217062875032,-13389.783740983068,-967.6593866018259,5,A
1781599095451,-677.2994192551728,-14265.348828710412,-492.54538292781626,5,A
1781599095472,1758.5483553715478,-13795.435455939314,-1728.64707045257,5,A
1781599095494,3329.0291574335124,-14526.411813583245,-2493.6611441649584,5,A
1781599095515,3164.769685789276,-12795.363406195695,-1225.3483377470513,5,A
1781599095537,-2379.989064347864,-15771.481433745985,3123.1527128286293,5,A
1781599095559,-6314.203726656153,-24041.153523794626,8474.224838953704,5,A
1781599095580,-9302.924844865911,-27671.937190333712,14042.722017607563,5,A
1781599095601,845.1054398865275,-26824.486577900363,6235.5520758795565,5,A
1781599095623,2259.3394274576335,-25129.585353033668,3344.6041552190577,5,A
1781599095645,-324.74250450656854,-20587.089416246385,2962.0971183628635,5,A
1781599095666,-2824.691536360308,-15839.759445174264,2535.2997930285837,5,A
1781599095688,-4042.6154236736684,-9224.825043858034,2728.566506387503,5,A
1781599095710,-2552.2611931454776,-5100.029882867282,1315.3036649504065,5,A
1781599095731,432.45359648759296,-5216.5041376567,-327.46339860040615,5,A
1781599095753,4847.427687998524,-9024.007363186623,-3182.1738105061077,5,A
1781599095774,6417.9084900604885,-10489.976432087913,-3315.0446759403644,5,A
1781599095797,6906.680576416508,-20125.208750702142,-2904.3529100526616,5,A
1781599095817,9618.96502283475,-29190.118856209567,-5746.98415237343,5,A
1781599095839,-2604.3434646424303,-26643.750665296095,2639.9859294313314,5,A
1781599095861,-20288.277802146287,-18032.688518106053,13849.455304248642,5,A
1781599095882,-7844.621242951231,-17008.518346681863,9730.45847578668,5,A
1781599095904,1570.2509122671795,-18623.09249928,433.524285250338,5,A
1781599095926,3809.7885866361544,-18860.05736247226,-879.0788096456546,5,A
1781599095947,965.2952971871881,-16659.095582313614,1468.3064796928843,5,A
1781599095969,-1674.8752348506555,-12787.330698968839,3457.343071345094,5,A
1781599095990,540.6244680581875,-9224.825043858034,1436.095360799731,5,A
1781599096012,885.1687256534144,-7590.16912319276,244.283961753063,5,A
1781599096034,103.93465319912079,-10718.90858805332,590.5534898544598,5,A
1781599096055,-12.248875524851087,-13277.325839807078,393.26038663389653,5,A
1781599096077,760.9725397760651,-15088.701319463193,-492.54538292781626,5,A
1781599096099,708.8902682791122,-16743.439008195604,-581.1259598839875,5,A
1781599096119,560.6561109416309,-17104.91083340414,-234.8564317825907,5,A
1781599096142,2659.972285126502,-16867.94597021188,-1793.0693082388764,5,A
1781599096163,1914.7951698624065,-17671.216692897517,-1120.6622013443034,5,A
1781599096185,-5064.229210729283,-21707.65207439285,5398.062984657574,5,A
1781599096207,-10548.893032216092,-24671.721041102854,11336.988030582694,5,A
1781599096229,-2732.5459790964683,-23241.899154722418,7995.08444541805,5,A
1781599096251,2463.6621848687564,-21703.63572077942,4572.653063020523,5,A
1781599096271,3300.9848573966915,-18213.42443071032,1214.6439184093028,5,A
1781599096294,-1895.2233065685332,-15064.603197782622,3417.0791727286523,5,A
1781599096315,-3137.1851653420254,-12526.267714096006,3167.443001306715,5,A
1781599096336,-4495.330552839489,-9907.605158140826,4254.568263950635,5,A
1781599096358,-2988.9510080045443,-10281.126044189648,3678.794513735522,5,A
1781599096379,668.8269825122254,-11216.936436118416,703.292405980496,5,A
1781599096401,1397.978783469566,-11237.018204185557,-1430.694220690903,5,A
1781599096423,1482.1116835800285,-11811.356770905788,-3101.6460132732245,5,A
1781599096444,1097.5041402179147,-12775.281638128554,-4072.0059699294648,5,A
1781599096466,2419.5925705251807,-10309.240519483645,-5432.925743165187,5,A
1781599096488,1570.2509122671795,-5533.796073117526,-3886.792036293834,5,A
1781599096510,-4936.026696275245,-4465.446011945628,2386.3233681477504,5,A
1781599096531,-11089.747390069064,-31909.19025250045,10129.07107208945,5,A
1781599096552,-21337.93588923872,-33005.65478896635,17561.78675668455,5,A
1781599096575,-7880.6782001414285,-33005.65478896635,8780.23046843866,5,A
1781599096596,-1682.887892004033,-30262.485270994894,5341.693526594556,5,A
1781599096617,516.5864965980553,-20884.29958364007,4049.2223810067835,5,A
1781599096639,2776.155813850474,-13072.49180552224,1061.6411036668253,5,A
1781599096660,-340.7678188133233,-4931.343031103298,554.3159810996625,5,A
1781599096682,27.814410242035763,844.17346500644,-1253.5330667785604,5,A
1781599096704,4951.59223099243,2008.9160129006152,-7256.880350489986,5,A
1781599096725,4294.5543444154855,848.1898186198681,-7385.724826062599,5,A
1781599096747,-4278.9888096983,2599.3199940745594,-1877.6234953334035,5,A
1781599096768,-8080.994628975863,-232.2093033923151,244.283961753063,5,A
1781599096790,-3958.482523563206,-5031.751871439003,216.09923272155396,5,A
1781599096812,4831.402373691769,-11096.44582771557,-2332.605549699192,5,A
1781599096833,9831.30043739925,-27218.089232016326,-508.65094237439286,5,A
1781599096855,4174.364487114824,-33005.65478896635,6964.328640837148,5,A
1781599096877,-10488.798103565761,-33005.65478896635,14384.965155847314,5,A
1781599096898,-13950.265993824785,-33005.65478896635,9730.45847578668,5,A
1781599096920,-18661.70840001068,-26744.1595056318,7862.213579983792,5,A
1781599096942,-22395.606633484535,-26234.082596726417,5893.308937639804,5,A
1781599096963,-9415.102045013195,-25864.578064291025,1130.0897313147757,5,A
1781599096984,-525.0589333410028,-18084.901115080622,477.8145737284236,5,A
1781599097006,4214.4277728817115,-13494.2089349322,405.33955621882893,5,A
1781599097028,6738.414776195584,-8104.262385711569,-528.7828916826136,5,A
1781599097050,8056.496877926161,-1806.6199198561658,-1499.1428483388536,5,A
1781599097071,8220.756349570398,5258.146086164022,-2811.745943234846,5,A
1781599097092,7900.250063435302,7254.273832037832,-4108.243478684262,5,A
1781599097114,7427.503291386037,7414.92797657496,-6000.646713657012,5,A
1781599097136,-513.0399476109367,1944.654355085764,-1889.7026649183358,5,A
1781599097156,-6979.254270386475,-7064.026799833668,107.38670645716194,5,A
1781599097179,-4535.393838606376,-20767.825328850653,-891.157979230587,5,A
1781599097201,4290.548015838796,-30668.13698595114,-3488.179439991063,5,A
1781599097222,-6991.27325611654,-33005.65478896635,4359.254400353383,5,A
1781599097244,-14611.310208978419,-33005.65478896635,14674.865225885693,5,A
1781599097266,-5629.121540042388,-33005.65478896635,12561.010548522516,5,A
1781599097287,-733.3880193288144,-30286.583392675464,6738.850808585075,5,A
1781599097309,8641.42085012271,-23631.485455224953,-3790.1586796143743,5,A
1781599097330,3108.6810857156347,-12542.333128549719,-1619.934544188178,5,A
1781599097352,-3922.4255663730078,-5120.111650934423,1593.1245654038528,5,A
1781599097373,-1714.9385206175423,249.75313021906777,-1640.0664934963986,5,A
1781599097395,-2864.754822127195,-1730.3092012010302,-4514.908854710321,5,A
1781599097417,-240.60960439610614,1097.203742652416,-6052.989781858386,5,A
1781599097438,-5168.393753723189,2081.210377942323,-2062.837428969034,5,A
1781599097460,-7083.41881338038,3615.4574582718915,-786.4718428278392,5,A
1781599097482,-2051.4701210593917,591.1431873604639,-1619.934544188178,5,A
1781599097503,4038.1493155074095,-1469.2462163281978,-1748.7790197607908,5,A
1781599097525,452.4852393710364,-15843.775798787692,763.6882539051583,5,A
1781599097546,3533.3519148446353,-29559.62338864496,3868.034837232797,5,A
1781599097568,2988.491228414974,-33005.65478896635,1520.6495478942581,5,A
1781599097590,-8197.178157699835,-33005.65478896635,6348.290992005593,5,A
1781599097611,-13381.367335934992,-33005.65478896635,6549.6104850878,5,A
1781599097633,-20320.328430759797,-27599.642825292005,8381.617872135888,5,A
1781599097654,-18721.803328661008,-20229.633944651276,8413.828991029042,5,A
1781599097676,-7191.5896849509745,-21651.423123804852,2877.5429312683364,5,A
1781599097698,2119.1179272735294,-17442.28453693211,-500.59816265110453,5,A
1781599097719,3473.256986194305,-10787.1865994816,-681.7857064250912,5,A
1781599097741,5877.054132207516,-4838.96689799445,-1426.6678308292587,5,A
1781599097763,7667.883005987358,-1268.4285356567882,-2421.1861266553638,5,A
1781599097784,6646.269218931744,4045.207294908708,-1933.9929533964216,5,A
1781599097805,1938.8331413225385,7342.633611533252,-500.59816265110453,5,A
1781599097827,-32.28051840829451,4555.284203814088,-472.4134336195955,5,A
1781599097849,2235.3014559975013,-2380.958486576397,-2686.9278575238773,5,A
1781599097870,-1081.93860550073,-8779.009792767505,-516.7037220976812,5,A
1781599097892,-2800.6535649001758,-18803.828411884268,-722.0496050415327,5,A
1781599097914,817.0611398497067,-29784.53919099694,-1994.3888013210837,5,A
1781599097936,-16390.120097028193,-33005.65478896635,12689.855024095128,5,A
1781599097957,-26746.479467768448,-33005.65478896635,21821.70723030406,5,A
1781599097979,-601.1791762980878,-33005.65478896635,9569.402881320913,5,A
1781599098001,6389.864190023668,-31720.421632669328,5538.986629815119,5,A
1781599098022,2463.6621848687564,-28133.817855877955,2950.017948777931,5,A
1781599098044,-1594.7486633168817,-26703.99596949752,4737.735047347933,5,A
1781599098065,-2868.7611507038837,-19378.1669786045,3360.7097146656342,5,A
1781599098088,-3597.9129516612243,-7702.6270243687495,-407.9911958332891,5,A
1781599098109,-56.318489868426624,-1573.6714102773308,-6262.362054663881,5,A
1781599098131,-88.3691184819361,2531.04198264628,-7599.123488729739,5,A
1781599098152,-3253.3686940659973,2089.243085169179,-2896.300130329373,5,A
1781599098173,-6153.950583588606,4575.365971881229,-1156.8997100991007,5,A
1781599098195,-7660.330128423551,3314.2309372647774,582.5007101311716,5,A
1781599098216,-2700.4953504829587,1318.1031913909665,-1857.4915460251827,5,A
1781599098238,3248.902585899739,-3674.2243501002745,-4535.040804018542,5,A
1781599098260,2659.972285126502,-13454.045398797918,-1414.5886612443264,5,A
1781599098281,-969.7614053534469,-22173.54909355052,2027.974670461421,5,A
1781599098303,-3177.2484511089124,-33005.65478896635,4496.151655649284,5,A
1781599098325,-8421.5325579944,-33005.65478896635,6980.434200283724,5,A
1781599098347,-14302.82290857339,-33005.65478896635,4629.0225210835415,5,A
1781599098369,-18757.86028585121,-20241.68300549156,4830.342014165749,5,A
1781599098390,-24935.61895110516,-21273.885884142604,8953.365232489357,5,A
1781599098411,-12431.867463259774,-23599.354626317527,4399.518298969825,5,A
1781599098433,-4471.292581379357,-22358.301359768215,1601.1773451271413,5,A
1781599098454,-1466.546148862844,-18554.81448785172,457.6826244202029,5,A
1781599098476,1630.3458409175098,-14377.806729886403,316.7589792626577,5,A
1781599098498,6173.522446882479,-8429.587028399252,-1998.415191182728,5,A
1781599098519,6626.2375760483,1422.5283853400995,-2852.0098418512875,5,A
1781599098541,3445.2126861574843,11338.905456894301,-2372.8694483156337,5,A
1781599098562,1874.7318840955197,13764.783039404929,-931.4218778470284,5,A
1781599098583,-673.2930906784842,4177.746964151838,1379.725902736713,5,A
1781599098606,-1642.8246062371459,-6027.807567569194,3187.574950614936,5,A
1781599098627,5195.978274170439,-12413.809812920017,-2095.0485478621877,5,A
1781599098649,6966.775505066838,-16996.46928584158,-5376.556285102169,5,A
1781599098670,1862.7128983654536,-21093.149971538336,-1334.0608640114433,5,A
1781599098692,-24971.675908295358,-33005.65478896635,21692.862754731446,5,A
1781599098714,-19963.765187434503,-33005.65478896635,14328.595697784296,5,A
1781599098735,1958.864784205982,-33005.65478896635,2044.0802299079976,5,A
1781599098757,3140.7317143291443,-33005.65478896635,5039.714286971244,5,A
1781599098779,-5917.577197563973,-21876.338926156834,7439.442644511157,5,A
1781599098800,-1662.8562491205894,-14321.577779298408,2748.6984556957236,5,A
1781599098822,1422.0167549296982,-6638.293316810279,-1716.5679008676375,5,A
1781599098843,4038.1493155074095,506.79976147847196,-4837.020043641853,5,A
1781599098866,228.13083907647,6069.4495160765155,-5521.506320121358,5,A
1781599098887,-4575.4571243732635,6430.921341285053,-1768.9109690690113,5,A
1781599098908,-3633.9699088514226,5109.541002467178,-4458.539396647303,5,A
1781599098931,-3994.539480753404,2936.693697602527,-3733.789221551356,5,A
1781599098951,-5773.34936880318,85.08263206851196,-327.46339860040615,5,A
1781599098974,-3285.419322679507,-6742.718510759412,-1607.8553746032455,5,A
1781599098995,716.9029254324896,-15418.042315764304,-2823.8251128197785,5,A
1781599099017,79.89668173898868,-27736.19884814856,3086.9152040738322,5,A
1781599099038,-5769.343040226491,-33005.65478896635,8425.908160613975,5,A
1781599099060,-15052.006352414173,-33005.65478896635,9416.400066578435,5,A
1781599099083,-16854.85421192408,-33005.65478896635,7125.384235302913,5,A
1781599099105,-18974.202028992397,-31403.1296972085,8309.142854626294,5,A
1781599099126,-16269.930239727535,-23591.32191909067,9537.19176242776,5,A
1781599099148,-2059.482778212769,-19426.363221965636,1774.3121091778396,5,A
1781599099169,1886.7508698255856,-15996.397236097962,-637.4954179470056,5,A
1781599099190,3333.035486010201,-10040.144827383956,-1736.6998501758583,5,A
1781599099213,2820.2254281940495,-6015.758506728909,-416.04397555657744,5,A
1781599099234,4903.5162880721655,-23.35891549404919,-1535.380357093651,5,A
1781599099255,5320.174460047789,7025.341676072425,-2574.188941397841,5,A
1781599099277,3849.8518724030414,10174.162909000126,-2763.4292648951164,5,A
1781599099300,1149.5864117148676,5290.276915071447,-1921.913783811489,5,A
1781599099320,-1582.7296775868156,-919.0057712885357,-222.77726219765827,5,A
1781599099342,-3621.9509231213565,-5385.190989420684,1448.1745303846635,5,A
1781599099363,572.6750966716969,-10694.810466372752,-1917.8873939498449,5,A
1781599099385,-348.78047596670064,-20024.799910366437,-29.510548838739123,5,A
1781599099407,-1771.0271206911839,-32816.88616913522,3175.4957810300034,5,A
1781599099428,-5016.153267809019,-33005.65478896635,8305.11646476465,5,A
1781599099450,-5380.729168287689,-33005.65478896635,8083.665022374221,5,A
1781599099472,-5136.343125109679,-33005.65478896635,7157.595354196067,5,A
1781599099494,-6294.17208377271,-27547.430228317437,5780.570021513768,5,A
1781599099515,-4106.716680900688,-21908.469755064256,2342.0330796696644,5,A
1781599099537,-6518.526484067275,-17406.137354411258,2148.7663663107455,5,A
1781599099558,-7768.500999994146,-9273.021287219171,2398.4025377326825,5,A
1781599099580,-2075.508092519524,-999.3328435570995,-347.5953479086269,5,A
1781599099601,1017.377568684141,3711.849944994168,-3198.279369952684,5,A
1781599099624,-280.672890162993,2635.467176595413,-1889.7026649183358,5,A
1781599099645,-3569.8686516244034,1193.5962293746925,-1813.2012575470972,5,A
1781599099666,-8461.595843761286,-204.09482809831775,626.7909986092571,5,A
1781599099688,-5645.146854349143,-1758.4236764950274,2.7005700544140683,5,A
1781599099709,-517.0462761876254,-1629.9003608653254,-3657.2878141801175,5,A
1781599099731,-2556.2675217221663,-8100.24603209814,-1982.3096317361515,5,A
1781599099752,103.93465319912079,-21028.888313723484,-319.4106188771178,5,A
1781599099774,3020.5418570284837,-31399.113343595072,2994.3082372560166,5,A
1781599099796,-9206.772959025382,-33005.65478896635,9114.420826955124,5,A
1781599099818,-12528.019349100303,-33005.65478896635,7536.076001190617,5,A
1781599099840,-8962.386915847374,-29085.693662260433,711.3451857037843,5,A
1781599099861,-17792.335098869236,-19153.251176252517,5079.978185587685,5,A
1781599099883,-16125.702410966742,-20354.140906667548,5510.80190078361,5,A
1781599099904,-11370.190390437272,-20193.486762130422,4443.80858744791,5,A
1781599099926,-5400.760811171132,-17161.139783992137,2023.9482805997768,5,A
1781599099947,-104.39443278869085,-13944.040539636158,232.20479216813055,5,A
1781599099969,1249.7446261320847,-6987.716081178532,-379.80646680178006,5,A
1781599099990,460.49789652441376,-738.2698586842671,437.5506751119822,5,A
1781599100012,436.45992506428166,-284.4219003668816,348.9700981558109,5,A
1781599100034,3994.079701163834,-1577.687763890759,-2119.2068870320522,5,A
1781599100056,4923.547930955609,-943.1038929691048,-1321.981694426511,5,A
1781599100076,1145.580083138179,-750.3189195245517,2418.5344870409035,5,A
1781599100098,2880.3203568443796,-5911.333312779777,1617.2829045737178,5,A
1781599100121,7014.851447987103,-19675.377145998184,-4140.454597577415,5,A
1781599100142,-4475.298909956046,-33005.65478896635,7681.026036209806,5,A
1781599100163,-19382.84754381464,-33005.65478896635,12186.55629138961,5,A
1781599100185,-10689.114532400195,-33005.65478896635,2466.851165380633,5,A
1781599100206,-15156.17089540808,-17193.270612899563,4025.064041836919,5,A
1781599100228,-7468.0263567424945,-3252.507220690314,2990.2818473943726,5,A
1781599100250,2479.687499175511,-2188.1735131318437,-4478.671345955524,5,A
1781599100271,5336.1997743545435,434.50539643676456,-5819.459169883025,5,A
1781599100293,6890.6552621097535,2037.0304881946126,-4869.231162535006,5,A
1781599100315,-4863.912781894849,5663.797801120269,2571.5373017833813,5,A
1781599100336,-9222.798273332137,8635.89947505713,1524.6759377559024,5,A
1781599100358,-6145.937926435228,-814.5805773394027,-1531.3539672320067,5,A
1781599100379,-2019.4194924458823,-2646.0378250626577,-1881.6498851950475,5,A
1781599100401,-3886.3686091828095,-9244.906811925175,-2231.9458031580884,5,A
1781599100423,3933.9847725135037,-20028.816263979865,-5171.210402158317,5,A
1781599100444,-3497.754737244007,-33005.65478896635,3823.7445487547116,5,A
1781599100466,-17459.809827004075,-33005.65478896635,9827.091832466138,5,A
1781599100487,-22279.42310476056,-33005.65478896635,9593.561220490777,5,A
1781599100510,-8966.393244424062,-33005.65478896635,-2952.6695883923912,5,A
1781599100532,-10508.829746449206,-19623.16454902362,3541.897258439621,5,A
1781599100552,-7792.538971454278,-9256.955872765458,3437.211122036873,5,A
1781599100574,-537.0779190710689,-4445.364243878487,-1156.8997100991007,5,A
1781599100595,2111.105270120152,-2629.9724106089448,-2179.602734956715,5,A
1781599100616,3501.3012862311257,1743.8366744143545,-33.536938700383274,5,A
1781599100639,8244.79432103053,5828.468299270824,-1136.7677607908802,5,A
1781599100660,9510.794151264154,8483.278037746859,-1551.4859165402274,5,A
1781599100682,5388.282045851496,5631.666972212843,-1426.6678308292587,5,A
1781599100704,1105.5167973712921,-4851.015958834734,-794.5246225511274,5,A
1781599100725,-2255.7928784705146,-11494.064835444962,743.5563045969375,5,A
1781599100746,-4026.5901093669136,-11409.72140956297,1790.4176686244161,5,A
1781599100769,-6414.36194107337,-20924.46311977435,2362.1650289778854,5,A
1781599100790,-11702.715662302433,-33005.65478896635,3018.4665764258816,5,A
1781599100812,-29731.194257401516,-33005.65478896635,19498.480280135384,5,A
1781599100833,-14350.898851493654,-33005.65478896635,11498.04362504846,5,A
1781599100856,-5116.311482226236,-33005.65478896635,7519.97044174404,5,A
1781599100876,-256.6349187028609,-23113.375839092714,2285.6636216066463,5,A
1781599100898,-1895.2233065685332,-16169.100441475375,324.81175898594597,5,A
1781599100920,-1783.04610642125,-4694.378167911034,1375.6995128750689,5,A
1781599100941,-2488.1599359184584,5422.816584314577,167.78255438182418,5,A
1781599100962,3589.4405149182767,8133.8552733786055,-5602.034117354241,5,A
1781599100985,3537.358243421324,1788.0165641620647,-2594.320890706062,5,A
1781599101006,380.37132499064006,3888.5695039850084,-4635.700550559645,5,A
1781599101027,-5136.343125109679,402.374567529339,-593.20512946892,5,A
1781599101049,-5669.184825809274,-4373.06987883678,1927.3149239203171,5,A
1781599101071,-2287.843507084024,-12437.907934600586,578.4743202695273,5,A
1781599101092,-1142.0335341510604,-27081.533209159767,-573.0731801606993,5,A
1781599101114,-8998.443873037571,-33005.65478896635,9794.880713572986,5,A
1781599101136,-11574.513147848396,-33005.65478896635,6783.1410970631605,5,A
1781599101159,-20937.303031569852,-31957.38649586159,10129.07107208945,5,A
1781599101179,-18088.803413544196,-21233.722348008323,4129.750178239667,5,A
1781599101201,-15905.354339248865,-16205.247623996229,5744.332512758971,5,A
1781599101222,-8974.405901577438,-17213.352380966702,4073.3807201766485,5,A
1781599101244,-1630.80562050708,-16514.5068522302,3376.815274112211,5,A
1781599101266,636.7763538987159,-11385.6232878824,1113.9841718681992,5,A
1781599101287,440.4662536409703,-6007.725799502053,336.89092857087843,5,A
1781599101308,905.2003685368578,-1392.9354976730622,-605.2842990538525,5,A
1781599101330,4402.72521598608,2832.2685036533944,-1829.3068169936737,5,A
1781599101352,7151.066619594518,2940.7100512159554,-4023.6892915897347,5,A
1781599101373,4595.028987667137,1559.084408196658,-2082.969378277255,5,A
1781599101395,-1458.5334917094665,-6288.870552442027,1661.5731930518034,5,A
1781599101417,-4487.317895686112,-20012.75084952615,5615.488037186357,5,A
1781599101439,-7359.8554851719,-33005.65478896635,9778.775154126408,5,A
1781599101460,-13894.177393751144,-33005.65478896635,13752.821947569184,5,A
1781599101481,-4435.235624189159,-33005.65478896635,7757.527443581045,5,A
1781599101503,-6650.735327098002,-31640.094560400765,6130.865939476808,5,A
1781599101525,-7600.23519977322,-14494.28098467582,5071.925405864397,5,A
1781599101547,-3906.400252066253,-4871.097726901875,-395.91202624835665,5,A
1781599101567,1249.7446261320847,-2308.6641215346895,-4426.32827775415,5,A
1781599101590,488.54219656123456,-1509.4097524624797,-1917.8873939498449,5,A
1781599101610,-3497.754737244007,2996.9390018039503,-1269.638626225137,5,A
1781599101632,-5252.526653833651,7435.0097446421005,-110.0383460716221,5,A
1781599101655,152.010596119385,3177.6749144082187,-3129.8307423047336,5,A
1781599101676,1534.1939550769814,1016.8766703838521,-2167.5235653717823,5,A
1781599101697,636.7763538987159,-3581.848216991426,-460.3342640346631,5,A
1781599101720,-1903.2359637219104,-11269.149033092983,1524.6759377559024,5,A
1781599101740,-717.3627050220597,-19514.723001461058,38.93807880921141,5,A
1781599101762,3813.794915212843,-33005.65478896635,2491.009504550498,5,A
1781599101784,1594.2888837273117,-33005.65478896635,2309.8219607765113,5,A
1781599101805,-12495.968720486793,-33005.65478896635,8023.269174449559,5,A
1781599101827,-20095.97403046523,-30897.06914191655,5184.664321990434,5,A
1781599101848,-26177.58080987865,-21044.953728177195,4761.893386517798,5,A
1781599101871,-26826.60603930222,-18936.368081127395,8558.77902604823,5,A
1781599101892,-9431.12735931995,-21036.92102095034,4004.932092528698,5,A
1781599101913,-2700.4953504829587,-15377.878779630022,3425.131952451941,5,A
1781599101935,-1426.4828630959569,-7525.907465377909,3719.0584123519634,5,A
1781599101956,720.9092540091783,-3148.0820267411814,2587.642861229958,5,A
1781599101978,3845.8455438263527,-778.433394818549,1339.4620041202716,5,A
1781599102000,6502.041390170951,3739.9644202881655,-1857.4915460251827,5,A
1781599102021,7171.098262477962,4671.7584586035055,-2856.0362317129316,5,A
1781599102043,1125.5484402547354,2273.995351386876,-271.09394053738805,5,A
1781599102065,-340.7678188133233,-5405.2727574878245,1238.8022575791679,5,A
1781599102086,2275.3647417643883,-11108.494888555855,546.2632013763741,5,A
1781599102108,556.6497823649422,-25270.15772950365,1295.171715642186,5,A
1781599102130,-9779.677945491865,-33005.65478896635,4858.526743197258,5,A
1781599102151,-32459.50401812651,-33005.65478896635,23299.392309527462,5,A
1781599102173,-20724.967617005354,-33005.65478896635,10837.715687738819,5,A
1781599102194,2335.4596704147184,-28904.957749656165,-1370.2983727662406,5,A
1781599102217,-12495.968720486793,-18213.42443071032,10712.897602027851,5,A
1781599102237,-9959.962731442856,-9044.089131253764,5760.438072205547,5,A
1781599102260,-1226.1664342615227,-1376.8700832193495,-2916.4320796375937,5,A
1781599102280,-360.7994616967667,-284.4219003668816,-1700.462341421061,5,A
1781599102302,-2416.046021538062,7057.472504979851,-1474.9845091689886,5,A
1781599102325,-3149.2041510720915,4968.968625997191,-3540.522508192437,5,A
1781599102346,-6654.741655674691,5647.732386666556,-3246.5960482924143,5,A
1781599102368,-9226.804601908825,1848.2618683634876,1762.232939592907,5,A
1781599102389,-2928.8560793542138,-2810.7083232132136,-1849.4387663018945,5,A
1781599102411,6381.851532870291,-8513.930454281244,-4390.090768999353,5,A
1781599102432,11978.692554504385,-22229.77804413851,-4245.140733980163,5,A
1781599102454,11570.047039682138,-30543.630023934867,-2384.948617900566,5,A
1781599102475,5516.484560305535,-33005.65478896635,-1177.0316594073215,5,A
1781599102497,-1771.0271206911839,-33005.65478896635,-951.5538271552492,5,A
1781599102518,-11971.139676940575,-31812.797765778174,2422.5608769025475,5,A
1781599102541,-15268.348095555362,-24623.524797741713,4174.040466717753,5,A
1781599102562,-7772.507328570834,-28688.074654531043,4033.116821560207,5,A
1781599102583,2291.3900560711427,-23326.24258060441,1279.0661561956092,5,A
1781599102605,6049.32626100513,-14731.245847868084,-778.4190631045508,5,A
1781599102627,3497.294957654437,-8706.715427725798,-536.8356714059018,5,A
1781599102648,1165.6117260216224,-3204.3109773291762,-1144.8205405141684,5,A
1781599102670,-3898.3875949128756,5788.3047631365425,1246.8550373024561,5,A
1781599102692,-1330.3309772554285,6535.346535234186,-1.3258198072300804,5,A
1781599102713,-1582.7296775868156,3474.8850818019046,-375.7800769401359,5,A
1781599102735,2327.447013261341,-4626.100156482756,-1326.008084288155,5,A
1781599102756,4302.567001568863,-11393.655995109257,-2405.0805672087868,5,A
1781599102777,1666.402798107708,-16526.555913070482,-915.3163184004519,5,A
1781599102800,1393.9724548928773,-30736.41499737942,-2670.8222980773007,5,A
1781599102821,-2764.596607709978,-33005.65478896635,-1394.4567119361056,5,A
1781599102843,-5444.830425514708,-33005.65478896635,4504.204435372572,5,A
1781599102864,-7387.8997852087205,-33005.65478896635,9903.593239837377,5,A
1781599102886,-757.4259907889465,-24551.230432700006,1126.0633414531317,5,A
1781599102908,8312.901906834237,-13570.519653587337,-8344.005613133906,5,A
1781599102929,5436.357988771761,-5477.567122529532,-8130.606950466767,5,A
1781599102951,-681.3057478318615,-1328.673839858211,-2111.154107308764,5,A
1781599102972,-4719.684953134056,1217.6943510552617,-685.8120962867354,5,A
1781599102993,-4154.792623820951,-4505.6095480799095,2048.106619769642,5,A
1781599103016,-4463.279924225981,2611.3690549148437,1862.8926861340108,5,A
1781599103037,-3918.419237796319,3816.275138943301,1625.335684297006,5,A
1781599103060,-1763.0144635378065,-4923.3103238764415,691.2132363955635,5,A
1781599103081,-144.45771855557769,-14839.687395430645,719.3979654270726,5,A
1781599103103,-2135.6030211698544,-17177.20519844585,3179.5221708916474,5,A
1781599103124,9847.325751706005,-33005.65478896635,-3017.091826178698,5,A
1781599103145,5540.522531765667,-33005.65478896635,-2437.2916861019403,5,A
1781599103167,2199.244498807303,-33005.65478896635,1907.1829746120966,5,A
1781599103189,4815.377059385015,-33005.65478896635,-263.0411608140998,5,A
1781599103211,3036.5671713352385,-33005.65478896635,-3331.1502353869414,5,A
1781599103232,3152.75070005921,-30913.13455637026,-5843.6175090528905,5,A
1781599103254,5953.174375164601,-13703.059322830466,-9612.318419551813,5,A
1781599103276,-2087.52707824959,-3798.7313121165485,-3145.9363017513106,5,A
1781599103297,-2832.7041935136854,759.8300391244479,-2666.7959082156567,5,A
1781599103319,-985.7867196602016,-1754.4073228815994,-2622.505619737571,5,A
1781599103340,-2219.7359212803167,-461.14145935772194,1512.5967681709699,5,A
1781599103362,-3898.3875949128756,3450.7869601213356,4214.304365334194,5,A
1781599103383,-3826.2736805324794,2410.551374243434,5241.033780053452,5,A
1781599103404,1802.6179697151233,-4646.181924549896,2668.1706584628405,5,A
1781599103426,6365.826218563536,-7333.122491933356,-363.70090735520347,5,A
1781599103448,2367.510299028228,-8417.537967558967,3320.4458160491927,5,A
1781599103469,1017.377568684141,-22410.51395674278,6497.267416886426,5,A
1781599103490,13829.616356934557,-33005.65478896635,-7039.455297961203,5,A
1781599103512,12110.901397535112,-33005.65478896635,-2513.793093473179,5,A
1781599103534,3325.0228288568237,-33005.65478896635,5857.071428885007,5,A
1781599103556,-20.26153267822846,-33005.65478896635,5631.593596632934,5,A
1781599103577,-4098.70402374731,-28844.71244545474,4826.315624304105,5,A
1781599103600,5031.718802526204,-16213.280331223084,-2384.948617900566,5,A
1781599103621,4879.478316612033,-8052.049788737002,-6532.13017539404,5,A
1781599103642,-2564.2801788755437,3896.602211211865,-1696.4359515594167,5,A
1781599103664,-4375.140695538829,9487.366441103906,252.3367414763513,5,A
1781599103685,-56.318489868426624,8672.046657577983,-3270.754387462279,5,A
1781599103707,3164.769685789276,2948.742758442812,-4704.149178207596,5,A
1781599103729,-116.4134185187569,-1364.8210223790647,-2441.3180759635843,5,A
1781599103750,-7007.298570423295,-4112.006893963947,3751.269531245117,5,A
1781599103772,-9715.576688264846,-7967.70636285501,5317.535187424691,5,A
1781599103794,-4026.5901093669136,-24278.11838698689,948.9021875407891,5,A
1781599103815,-4831.8621532813395,-33005.65478896635,9227.15974308116,5,A
1781599103837,-7932.760471638381,-33005.65478896635,5587.303308154848,5,A
1781599103858,1518.1686407702266,-33005.65478896635,-512.677332236037,5,A
1781599103880,7383.433677042462,-33005.65478896635,-5630.21884638575,5,A
1781599103902,-889.6348338196731,-33005.65478896635,340.91731843252256,5,A
1781599103924,-1494.5904488996646,-25555.318836057053,1303.2244953654742,5,A
1781599103945,3168.776014365965,-20221.601237424416,-685.8120962867354,5,A
1781599103967,5280.111174280902,-5754.695521856077,-1772.9373589306556,5,A
1781599103989,2419.5925705251807,5599.536143305418,-1136.7677607908802,5,A
1781599104010,604.7257252852064,8812.61903404797,1303.2244953654742,5,A
1781599104031,1137.5674259848015,12616.105905964467,1351.5411737052038,5,A
1781599104053,1361.921826279368,12587.991430670469,2998.334627117661,5,A
1781599104074,552.6434537882535,12519.713419242189,4226.383534919126,5,A
1781599104096,228.13083907647,-657.9427864157033,3582.1611570560626,5,A
1781599104118,696.8712825490462,-10465.878310407345,2362.1650289778854,5,A
1781599104140,-8517.684443834929,-33005.65478896635,3751.269531245117,5,A
1781599104161,-11598.551119308528,-33005.65478896635,5043.740676832888,5,A
1781599104183,-15452.639210083044,-33005.65478896635,6932.117521943995,5,A
1781599104204,-5769.343040226491,-33005.65478896635,42.96446867085556,5,A
1781599104226,552.6434537882535,-27973.163711340825,-2239.998582881377,5,A
1781599104248,-2972.9256936977895,-14851.736456270928,-778.4190631045508,5,A
1781599104270,-1875.1916636850897,-6244.690662694316,-512.677332236037,5,A
1781599104291,781.0041826595086,4595.44773994837,-1503.1692382004976,5,A
1781599104312,1626.339512340821,14170.434754361177,-544.8884511291902,5,A
1781599104334,2423.5988991018694,18994.075444088434,1057.614713805181,5,A
1781599104356,3308.997514550069,17736.95676308541,735.5035248736492,5,A
1781599104377,-861.5905337828524,11599.968441767134,2897.674880576557,5,A
1781599104399,-12087.323205664547,-2686.2013611969396,7366.9676270015625,5,A
1781599104421,-4823.849496127962,-22555.102686826198,-2441.3180759635843,5,A
1781599104442,-2960.9067079677234,-33005.65478896635,-6636.816311796788,5,A
1781599104463,-11862.968805369981,-33005.65478896635,820.0577119681762,5,A
1781599104486,-3281.412994102818,-33005.65478896635,-1422.6414409676147,5,A
1781599104507,5700.775674833214,-33005.65478896635,-6979.0594500365405,5,A
1781599104529,-4915.995053391802,-20265.78112717213,-1040.1344041114205,5,A
1781599104550,-5072.241867882661,-14803.540212909791,-432.149535003154,5,A
1781599104572,1361.921826279368,-9831.294439485691,-1938.0193432580656,5,A
1781599104594,3365.0861146237103,-1870.8815776710169,-1293.796965395002,5,A
1781599104615,-108.40076136537954,7378.780794054106,3715.0320224903194,5,A
1781599104636,712.8965968558009,15576.158519061042,4484.072486064352,5,A
1781599104658,2383.535613334983,18303.262622578786,3976.747363497189,5,A
1781599104680,3160.7633572125874,10049.655946983852,1790.4176686244161,5,A
1781599104701,-112.40708994206821,2784.072260292256,-387.8592465250684,5,A
1781599104723,-10200.342446044177,-15799.595909039981,3159.390221583427,5,A
1781599104744,-8008.880714595467,-33005.65478896635,-4345.800480521267,5,A
1781599104766,13300.78098481165,-33005.65478896635,-19009.912356629255,5,A
1781599104788,67.87769600892261,-33005.65478896635,-6161.702308122778,5,A
1781599104810,-6831.020113048993,-33005.65478896635,-2183.629124818359,5,A
1781599104832,-1578.7233490101269,-29631.917753686666,-6717.34410902967,5,A
1781599104854,-813.5145908625881,-20860.2014619595,-4603.489431666492,5,A
1781599104876,-4250.94450966148,-12907.821307371685,1001.245255742163,5,A
1781599104897,-256.6349187028609,-2662.10323951637,485.86735345171195,5,A
1781599104919,-1606.7676490469478,1350.234020298392,2772.8567948655887,5,A
1781599104941,4062.1872869675417,6358.626976243346,1045.5355442202485,5,A
1781599104962,2191.2318416539256,10330.800699923826,1689.7579220833125,5,A
1781599104984,825.0737970030841,12467.500822267624,3872.061227094441,5,A
1781599105004,-829.5399051693429,9515.480916397903,3936.4834648807478,5,A
1781599105027,-1186.103148494636,1446.6265070206684,578.4743202695273,5,A
1781599105049,-212.56530435928534,-20687.498256582086,-4514.908854710321,5,A
1781599105070,-3962.488852139895,-33005.65478896635,-2191.681904541647,5,A
1781599105092,4202.408787151646,-33005.65478896635,-8533.245936631181,5,A
1781599105114,5047.744116832958,-33005.65478896635,-7933.313847246203,5,A
1781599105136,1253.7509547087734,-33005.65478896635,-7095.824756024221,5,A
1781599105157,-4691.640653097235,-33005.65478896635,-2469.5028049950934,5,A
1781599105178,-5789.374683109935,-20394.30444280183,868.3743903079061,5,A
1781599105200,-925.6917910098713,-11686.849808889514,-846.8676907525014,5,A
1781599105221,921.2256828436125,-3469.3903158154367,-734.1287746264652,5,A
1781599105242,184.0612247328945,3800.209724489588,2519.194233582007,5,A
1781599105265,-505.02729045755933,12652.25308848532,4528.362774542437,5,A
1781599105286,1978.8964270894255,15704.681834690746,3578.134767194418,5,A
1781599105307,4318.592315875618,15403.455313683631,-375.7800769401359,5,A
1781599105328,712.8965968558009,9676.13506093503,421.4451156654056,5,A
1781599105351,-5749.311397343048,1125.3182179464134,1319.3300548120508,5,A
1781599105372,-12287.63963449898,-24796.228003119126,3553.9764280245536,5,A
1781599105394,3260.9215716298045,-33005.65478896635,-10514.229748560101,5,A
1781599105416,14899.306086910436,-33005.65478896635,-14536.593220342607,5,A
1781599105438,4418.750530292835,-33005.65478896635,-2968.7751478389678,5,A
1781599105459,2828.2380853474265,-33005.65478896635,-4583.357482358271,5,A
1781599105481,-697.3310621386163,-26916.862711009213,-3319.071065802009,5,A
1781599105502,-3281.412994102818,-17755.560118779507,143.62421521195927,5,A
1781599105523,-1783.04610642125,-9040.072777640336,393.26038663389653,5,A
1781599105545,1261.7636118621508,-4124.055954804232,-697.8912658716679,5,A
1781599105567,2864.295042537625,3197.7566824753594,1246.8550373024561,5,A
1781599105589,1365.9281548560566,7527.385877750949,3082.888814212188,5,A
1781599105609,2335.4596704147184,9921.13263135415,3264.0763579861746,5,A
1781599105631,-396.8564188869649,11178.251312357173,3996.87931280541,5,A
1781599105654,-805.5019337092108,6133.711173891367,2732.592896249147,5,A
1781599105674,-3926.4318949496965,-4276.677392114503,1528.7023276175464,5,A
1781599105696,4294.5543444154855,-22996.901584303298,-6028.831442688521,5,A
1781599105719,11998.724197387828,-32391.152686111836,-11347.692449920442,5,A
1781599105740,-3253.3686940659973,-33005.65478896635,-4192.797665778789,5,A
1781599105761,-17359.65161258686,-33005.65478896635,9428.479236163368,5,A
1781599105783,-9134.659044644986,-33005.65478896635,6223.472906294624,5,A
1781599105805,-4150.786295244263,-32166.236883759855,-6745.528838061179,5,A
1781599105826,-8830.178072816647,-19759.720571880174,-343.56895804698274,5,A
1781599105847,-6855.058084509125,-16036.560772232246,3058.730475042323,5,A
1781599105869,-1113.9892341142395,-8180.573104366704,-246.93560136752316,5,A
1781599105891,2359.4976418748506,-1352.7719615387803,-665.6801469785147,5,A
1781599105913,83.90301031567735,5141.671831374604,2426.5872667641916,5,A
1781599105934,-3585.893965931158,4209.877793059263,4842.421183750681,5,A
1781599105956,1430.0294120830756,8029.430079429473,2744.6720658340796,5,A
1781599105978,6045.319932428441,5776.255702296258,-226.8036520593024,5,A
1781599105998,5873.047803630828,2731.8596633176894,-3544.5488980540813,5,A
1781599106021,-3617.944594544668,-4019.6307608550987,1411.9370216298662,5,A
1781599106043,-6642.722669944625,-20518.811404818105,2567.510911921737,5,A
1781599106064,5620.64910329944,-33005.65478896635,-7675.624896100978,5,A
1781599106085,7034.883090870546,-33005.65478896635,-8247.372256454446,5,A
1781599106107,2002.9343985495575,-33005.65478896635,-3069.4348943800715,5,A
1781599106129,2375.5229561816054,-33005.65478896635,-3625.076695286964,5,A
1781599106150,-701.3373907153049,-33005.65478896635,-2614.4528400142826,5,A
1781599106172,-2351.9447643110434,-24266.069326146604,-1007.9232852182673,5,A
1781599106194,1121.5421116780467,-16675.160996767325,-2884.2209607444406,5,A
1781599106215,3921.9657867834376,-9176.628800496896,-2155.44439578685,5,A
1781599106236,2519.750784942398,-2216.2879884258414,-21.457769115450827,5,A
1781599106259,-2295.8561642374016,3808.2424317164446,5534.960239953474,5,A
1781599106280,-973.7677339301355,8266.394942621737,5293.376848254826,5,A
1781599106301,-236.60327581941746,9627.938817573893,5824.860309991854,5,A
1781599106323,1245.738297555396,9290.565114045925,2068.2385690778624,5,A
1781599106344,-945.7234338933147,2892.513807854817,695.2396262572076,5,A
1781599106367,-4711.672295980678,-11626.604504688092,1069.6938833901136,5,A
1781599106388,-705.3437192919936,-32126.073347625574,-4474.64495609388,5,A
1781599106410,13725.451813940652,-33005.65478896635,-13529.99575493157,5,A
1781599106431,13941.79355708184,-33005.65478896635,-12841.48308859042,5,A
1781599106453,2583.852042169417,-33005.65478896635,-3935.1087146335635,5,A
1781599106475,-3589.900294507847,-33005.65478896635,-190.5661433045051,5,A
1781599106496,-5108.298825072859,-26450.96569185154,2378.270588424462,5,A
1781599106517,2319.4343561079636,-16398.032597440782,-2014.5207506293045,5,A
1781599106539,3901.934143899994,-9421.626370916016,-1531.3539672320067,5,A
1781599106560,1974.8900985127368,-2188.1735131318437,268.44230092292787,5,A
1781599106582,-88.3691184819361,2820.2194428131097,3320.4458160491927,5,A
1781599106605,-1482.5714631695985,8286.476710688878,5454.432442720592,5,A
1781599106625,-1346.3562915621833,11246.529323785453,5514.828290645254,5,A
1781599106647,-40.29317556167188,10001.459703622715,4584.7322326054555,5,A
1781599106668,973.3079543405654,7077.5542730469915,1919.2621441970289,5,A
1781599106690,-3329.4889370230826,-2047.6011366618573,1419.9898013531545,5,A
1781599106713,-156.47670428564376,-23085.261363798716,-3286.859946908856,5,A
1781599106734,14550.75550073852,-33005.65478896635,-13131.383158628798,5,A
1781599106755,8128.610792306557,-33005.65478896635,-6697.21215972145,5,A
1781599106777,2659.972285126502,-33005.65478896635,-2630.558399460859,5,A
1781599106799,6862.610962072933,-33005.65478896635,-5940.25086573235,5,A
1781599106820,1365.9281548560566,-25852.52900345074,-2956.6959782540353,5,A
1781599106842,-4042.6154236736684,-19454.477697259634,1693.7843119449567,5,A
1781599106863,-585.1538619913331,-8634.42106268409,1403.884241906578,5,A
1781599106885,1538.20028365367,-2513.4981558195273,1540.781497202479,5,A
1781599106906,1582.2698979972456,996.7949023167112,3501.6333598231795,5,A
1781599106928,1189.6496974817544,5109.541002467178,4753.84060679451,5,A
1781599106950,31.82073881872445,6828.540349014444,6275.8159744959985,5,A
1781599106971,1822.6496125985668,8796.553619594257,2901.7012704382014,5,A
1781599106993,11.789095935281024,4583.398679108085,1798.4704483477044,5,A
1781599107014,-2476.1409501883923,-8224.752994114415,1178.4064096545055,5,A
1781599107036,3509.313943384503,-27338.57984041917,-3399.5988630348916,5,A
1781599107058,9562.876422761108,-33005.65478896635,-7506.5165219119235,5,A
1781599107079,9526.819465570909,-33005.65478896635,-6371.0745809282735,5,A
1781599107101,7026.870433717168,-33005.65478896635,-4957.811739491178,5,A
1781599107124,3793.7632723293996,-33005.65478896635,-3246.5960482924143,5,A
1781599107144,-220.5779615126627,-26109.575634710145,-1.3258198072300804,5,A
1781599107166,-2295.8561642374016,-17851.952605501785,856.2952207229737,5,A
1781599107187,224.12451049978134,-8694.666366885513,659.0021175024103,5,A
1781599107209,-20.26153267822846,-690.0736153231288,2269.5580621600698,5,A
1781599107230,-969.7614053534469,4089.387184656418,5071.925405864397,5,A
1781599107252,-1899.229635145222,6615.67360750275,6219.44651643298,5,A
1781599107274,-913.6728052798053,11150.136837063177,4419.650248278045,5,A
1781599107295,2355.491313298162,9089.747433374516,361.04926774074335,5,A
1781599107317,2812.212771040672,4587.415032721514,-1177.0316594073215,5,A
1781599107339,1141.5737545614902,-4746.590764885601,-2791.6139939266254,5,A
1781599107360,-2708.508007636336,-29443.149133855542,-597.2315193305641,5,A
1781599107382,8405.047464098077,-33005.65478896635,-9491.526723702487,5,A
1781599107403,21617.91911001736,-33005.65478896635,-12104.653743909541,5,A
1781599107425,12976.268370099868,-33005.65478896635,-9189.547484079178,5,A
1781599107447,841.0991113098388,-33005.65478896635,-3153.9890814745986,5,A
1781599107469,-4431.229295612471,-30045.60217586977,876.4271700311944,5,A
1781599107490,-3662.014208888243,-19695.458914065326,-420.07036541822157,5,A
1781599107511,-665.2804335251068,-7610.250891259901,-1386.4039322128174,5,A
1781599107533,2948.427942648087,149.34428988336302,-2066.8638188306786,5,A
1781599107554,764.9788683527538,9182.123566483364,1899.1301948888083,5,A
1781599107576,1574.2572408438682,12877.168890837298,3630.477835395792,5,A
1781599107598,2127.130584426907,14672.4789560397,3876.087616956085,5,A
1781599107619,-1598.7549918935704,11122.022361769179,5579.25052843156,5,A
1781599107641,-2071.501763942835,6406.823219604484,3501.6333598231795,5,A
1781599107662,-4391.166009845584,1526.9535792892323,1419.9898013531545,5,A
1781599107684,272.20045342004556,-21571.09605153629,-5980.514764348791,5,A
1781599107707,2515.744456365709,-33005.65478896635,-6697.21215972145,5,A
1781599107727,13981.856842848727,-33005.65478896635,-12692.506663709586,5,A
1781599107749,11650.173611215912,-33005.65478896635,-6548.235734840616,5,A
1781599107770,456.49156794772506,-33005.65478896635,-556.9676207141226,5,A
1781599107792,-6149.9442550119165,-33005.65478896635,1685.7315322216682,5,A
1781599107814,-4739.7165960175,-25836.463588997027,1597.150955265497,5,A
1781599107836,-749.4133336355692,-15655.007178956566,-1406.5358815210382,5,A
1781599107857,901.1940399601691,-7562.054647898763,-935.4482677086726,5,A
1781599107879,1446.0547263898302,1607.280651557796,429.49789538869385,5,A
1781599107900,612.7383824385838,4290.204865327827,3767.3750906916935,5,A
1781599107922,119.95996750587553,10150.064787319558,5237.007390191808,5,A
1781599107944,-128.43240424882296,11628.082917061132,4306.911332152009,5,A
1781599107965,752.9598826226878,9001.387653879096,2293.716401329935,5,A
1781599107987,3144.738042905833,3611.4411046584632,-3121.7779625814455,5,A
1781599108009,-1446.5145059794004,-13823.549931233312,-1704.488731282705,5,A
1781599108030,-4875.931767624915,-33005.65478896635,208.04645299826566,5,A
1781599108051,9695.085265791833,-33005.65478896635,-8682.222361512015,5,A
1781599108073,21245.330552385312,-33005.65478896635,-14770.123832317968,5,A
1781599108094,8096.560163693048,-33005.65478896635,-5332.2659966240835,5,A
1781599108116,-1166.0715056111924,-33005.65478896635,-758.2871137963301,5,A
1781599108138,-2508.191578801902,-26334.491437062123,1097.8786124216226,5,A
1781599108160,901.1940399601691,-14964.194357446919,-488.5189930661721,5,A
1781599108181,2071.041984353265,-5176.340601522417,-210.69809261272582,5,A
1781599108202,-797.4892765558334,1824.1637466829184,3654.6361745656573,5,A
1781599108224,-1286.261362911853,6816.491288174159,5647.69915607951,5,A
1781599108246,520.592825174744,10615.961806477228,4798.130895272596,5,A
1781599108267,2271.3584131876996,11467.428772524005,2402.428927594327,5,A
1781599108289,1329.8711976658585,10358.915175217824,1798.4704483477044,5,A
1781599108310,-3077.0902366916953,2543.0910434865646,1750.1537700079748,5,A
1781599108332,-4315.045766888499,-14060.514794425575,-544.8884511291902,5,A
1781599108354,7603.78174876034,-33005.65478896635,-8279.5833753476,5,A
1781599108376,17527.457633218215,-33005.65478896635,-9914.297659175123,5,A
1781599108397,12904.15445571947,-33005.65478896635,-4442.433837200726,5,A
1781599108419,2391.54827048836,-33005.65478896635,1520.6495478942581,5,A
1781599108440,-5108.298825072859,-30085.765712004053,4250.541874088991,5,A
1781599108462,-5448.836754091397,-23695.7471130398,4492.12526578764,5,A
1781599108484,-2416.046021538062,-14152.890927534423,3304.340256602616,5,A
1781599108505,-697.3310621386163,-7782.954096637313,2519.194233582007,5,A
1781599108527,-693.3247335619276,-1224.248645909078,3139.258272275206,5,A
1781599108548,296.23842488017766,6133.711173891367,3368.7624943889227,5,A
1781599108569,1530.1876265002927,10282.604456562687,4077.4071100382926,5,A
1781599108591,2836.250742500804,10852.92666966949,2539.3261828902278,5,A
1781599108613,3028.554514181861,8471.228976906574,183.88811382840078,5,A
1781599108634,2199.244498807303,4197.828732218979,-2058.81103910739,5,A
1781599108656,-2131.5966925931657,-8971.794766212057,-786.4718428278392,5,A
1781599108678,-3561.855994471026,-29784.53919099694,-1619.934544188178,5,A
1781599108700,3008.5228712984176,-33005.65478896635,-3693.5253229349146,5,A
1781599108721,15356.027544652947,-33005.65478896635,-7929.287457384559,5,A
1781599108743,8993.977764871313,-33005.65478896635,-3351.282184695162,5,A
1781599108764,-3641.9825660048,-32467.46340476697,2305.7955709148673,5,A
1781599108786,-14435.031751604116,-28752.336312345895,9476.795914503098,5,A
1781599108807,-1799.0714207280046,-18872.106423312547,4419.650248278045,5,A
1781599108829,1177.6307117516883,-6357.148563870305,695.2396262572076,5,A
1781599108850,504.5675108679893,671.4702596290277,2748.6984556957236,5,A
1781599108872,-1474.558806016221,7029.358029685854,5208.822661160299,5,A
1781599108894,-2091.5334068262787,10776.615951014355,6916.011962497418,5,A
1781599108915,-2119.5777068630996,11170.218605130318,4979.318439046582,5,A
1781599108936,2924.3899711879553,8868.847984635964,348.9700981558109,5,A
1781599108958,3308.997514550069,-2706.2831292640803,-3355.308574556806,5,A
1781599108980,1914.7951698624065,-23804.18866060236,-2948.643198530747,5,A
1781599109002,2531.769770672464,-33005.65478896635,-1970.230462151219,5,A
1781599109023,9675.05362290839,-33005.65478896635,-3673.393373626694,5,A
1781599109045,10736.730695730892,-33005.65478896635,-2952.6695883923912,5,A
1781599109067,1470.0926978499624,-33005.65478896635,2080.317738662795,5,A
1781599109088,-5805.39999741669,-21739.782903300274,6549.6104850878,5,A
1781599109110,-5132.336796532991,-14843.703749044073,6058.390921967214,5,A
1781599109131,-4932.020367698557,-14650.918775599519,7991.058055556406,5,A
1781599109153,-1710.9321920408536,-4834.950544381021,3405.00000314372,5,A
1781599109174,552.6434537882535,-11.309854653764617,4101.565449208158,5,A
1781599109196,1217.6939975185753,3213.8220969290724,4049.2223810067835,5,A
1781599109218,-2035.444806752637,5772.23934868283,5897.335327501448,5,A
1781599109239,1442.0483978131417,6912.883774896436,2350.085859392953,5,A
1781599109260,688.8586253956688,4993.066747677761,546.2632013763741,5,A
1781599109282,2491.7064849055773,-1975.3067716201497,-4027.715681451379,5,A
1781599109304,111.94731035249815,-20020.78355675301,-2348.711109145769,5,A
1781599109326,2748.111513813653,-31652.143621241048,-4313.589361628114,5,A
1781599109347,4595.028987667137,-33005.65478896635,-452.28148431137475,5,A
1781599109369,7627.819720220471,-33005.65478896635,-254.98838109081146,5,A
1781599109390,6281.6933184530735,-33005.65478896635,481.8409635900678,5,A
1781599109412,5700.775674833214,-33005.65478896635,413.39233594211726,5,A
1781599109433,7936.307020625501,-30828.79113048827,-963.6329967401816,5,A
1781599109455,7307.313434085377,-24559.263139926865,-2038.6790897991693,5,A
1781599109476,5123.864359790044,-15614.843642822285,-871.0260299223662,5,A
1781599109498,1950.8521270526046,-3887.0910916119683,1814.5760077942812,5,A
1781599109520,2010.947055702935,2012.9323665140435,1786.3912787627721,5,A
1781599109541,-1134.020876997683,9901.05086328701,5075.951795726041,5,A
1781599109563,-2227.748578433694,10447.274954713244,4359.254400353383,5,A
1781599109584,-881.6221766662958,9909.083570513865,3376.815274112211,5,A
1781599109605,1089.4914830645373,1980.8015376066178,-866.9996400607221,5,A
1781599109627,7119.015990981008,-12582.496664684,-4820.914484195277,5,A
1781599109649,7115.00966240432,-18835.959240791693,-3842.5017478157483,5,A
1781599109671,-1546.6727203966175,-27294.39995067146,3614.3722759492157,5,A
1781599109692,-4731.703938864122,-33005.65478896635,8172.245599330392,5,A
1781599109713,11297.616696467308,-33005.65478896635,-1978.2832418745072,5,A
1781599109735,9434.67390830707,-33005.65478896635,2040.0538400463533,5,A
1781599109757,2519.750784942398,-30427.15576914545,4270.673823397212,5,A
1781599109779,568.6687680950082,-21177.493397420327,3360.7097146656342,5,A
1781599109800,-3016.9953080413648,-16900.076799119302,5696.0158344192405,5,A
1781599109821,1137.5674259848015,-8550.077636802098,1681.7051423600242,5,A
1781599109844,1281.7952547455943,-5517.730658663814,2144.7399764491015,5,A
1781599109864,2014.9533842796236,-67.53880524175928,1842.7607368257902,5,A
1781599109886,2247.3204417275674,3840.37326062387,896.5591193394151,5,A
1781599109908,5380.269388698119,5888.713603472247,-2650.69034876908,5,A
1781599109930,5276.104845704213,12.788267026804526,-3653.261424318473,5,A
1781599109951,2559.814070709285,-11297.26350838698,-1857.4915460251827,5,A
1781599109972,10103.73078061408,-21916.502462291115,-3967.3198335267166,5,A
1781599109994,-6033.760726287945,-3385.0468899334446,-4861.178382811718,5,A
1781599110017,-3329.4889370230826,-27928.983821593116,2607.7748105381784,5,A
1781599110038,-849.5715480527863,-33005.65478896635,3521.7653091314,5,A
1781599110059,5236.041559937326,-33005.65478896635,332.8645387092343,5,A
1781599110081,12455.445655130337,-30893.05278830312,-4957.811739491178,5,A
1781599110102,4831.402373691769,-20607.171184313524,123.49226590373854,5,A
1781599110123,1321.858540512481,-23820.254075056077,3433.184732175229,5,A
1781599110145,4178.370815691514,-18795.79570465741,481.8409635900678,5,A
1781599110167,8637.414521546021,-9184.661507723751,-2038.6790897991693,5,A
1781599110188,4859.44667372859,-2710.2994828775086,-673.732926701803,5,A
1781599110210,3260.9215716298045,2041.0468418080407,6.726959916058218,5,A
1781599110231,4534.934059016807,6173.874710025649,-222.77726219765827,5,A
1781599110254,4635.092273434024,4711.921994737788,-1660.1984428046194,5,A
1781599110275,4338.623958759061,2169.5701574377426,-3033.1973856252744,5,A
1781599110297,1922.807827015784,-4469.462365559056,-1660.1984428046194,5,A
1781599110317,2375.5229561816054,-22053.058485147674,280.52147050786033,5,A
1781599110339,3561.396214881456,-31591.898317039624,1725.9954308381098,5,A
1781599110361,588.7004109784517,-33005.65478896635,6110.733990168588,5,A
1781599110383,2022.966041433001,-33005.65478896635,6992.513369868657,5,A
1781599110405,5336.1997743545435,-31933.288374181022,2873.5165414066923,5,A
1781599110426,4274.522701532042,-23607.387333544382,1669.6259727750917,5,A
1781599110447,805.0421541196407,-18550.798134238292,2917.806829884778,5,A
1781599110469,3088.649442832191,-13229.12959644594,1303.2244953654742,5,A
1781599110490,2339.465998991407,-7682.545256301609,546.2632013763741,5,A
1781599110512,1462.080040696585,-2413.0893154838227,1669.6259727750917,5,A
1781599110533,648.795339628782,-1232.2813531359345,2527.2470133052952,5,A
1781599110555,660.814325358848,-686.0572617097006,2305.7955709148673,5,A
1781599110579,6906.680576416508,-2384.974840189825,-3021.118216040342,5,A
1781599110600,6802.516033422602,-11008.08604822015,-1466.9317294457003,5,A
1781599110623,7127.028648134386,-18590.961670372573,-657.6273672552263,5,A
1781599110644,6177.528775459167,-20771.84168246408,1862.8926861340108,5,A
1781599110665,6429.927475790555,-32519.676001741536,2511.1414538587187,5,A
1781599110686,6225.604718379432,-33005.65478896635,3988.8265330821214,5,A
1781599110709,7038.889419447235,-30382.975879397738,2825.1998630669623,5,A
1781599110729,6930.7185478766405,-20767.825328850653,642.8965580558338,5,A
1781599110750,3990.0733725871455,-15044.521429715482,1299.19810550383,5,A
1781599110773,-1374.400591599004,-15598.778228368572,4306.911332152009,5,A
1781599110794,1630.3458409175098,-16562.703095591336,3706.979242767031,5,A
1781599110816,4146.320187078004,-12369.629923172306,2193.056654788831,5,A
1781599110837,3577.4215291882106,-7244.762712437936,2245.399722990205,5,A
1781599110858,3128.712728599078,-4007.581700014814,2998.334627117661,5,A
1781599110880,4370.67458737257,-3180.212855648607,932.7966280942125,5,A
1781599110902,5560.55417464911,1201.628936601549,-879.0788096456546,5,A
1781599110924,3140.7317143291443,775.8954535781608,-25.484158977094975,5,A
1781599110946,921.2256828436125,-5762.7282290829335,-573.0731801606993,5,A
1781599110967,1297.820569052349,-16233.362099290227,-1044.1607939730648,5,A
1781599110989,7663.87667741067,-31628.045499560478,-4067.9795800678203,5,A
1781599111011,12459.451983707027,-33005.65478896635,-5340.318776347372,5,A
1781599111033,6582.167961704725,-33005.65478896635,1613.2565147120736,5,A
1781599111053,3317.0101717034463,-33005.65478896635,3690.8736833204543,5,A
1781599111075,3913.95312963006,-21077.08455708462,433.524285250338,5,A
1781599111097,3200.8266429794744,-21016.8392528832,856.2952207229737,5,A
1781599111118,4643.104930587401,-15410.009608537448,389.23399677225234,5,A
1781599111140,3833.8265580962866,-8991.8765342792,167.78255438182418,5,A
1781599111162,2239.30778457419,-3284.63804959774,1975.631602260047,5,A
1781599111182,1618.3268551874437,-1601.785885571328,2652.065099016264,5,A
1781599111204,1706.466083874595,382.29279946219805,2788.962354312165,5,A
1781599111226,1426.023083506387,1631.3787732383653,2591.669251091602,5,A
1781599111248,1762.5546839482365,2928.6609903756707,2905.7276602998454,5,A
1781599111269,2099.086284390086,-147.8658775103231,1907.1829746120966,5,A
1781599111291,7327.34507696882,-10526.123614608767,-4148.507377300703,5,A
1781599111313,21217.28625234849,-25221.961486142514,-15019.760003739904,5,A
1781599111334,6670.307190391875,-33005.65478896635,-3178.1474206444636,5,A
1781599111356,-8261.279414926852,-33005.65478896635,9170.790285018142,5,A
1781599111377,-364.8057902734554,-33005.65478896635,4206.251585610906,5,A
1781599111398,6874.629947802999,-31314.769917713078,-3560.654457500658,5,A
1781599111420,3825.813900942909,-25193.847010848516,-1366.2719829045966,5,A
1781599111442,5576.579488955865,-15032.472368875196,-3323.097455663653,5,A
1781599111463,3228.8709430162953,-8056.06614235043,-830.7621313059248,5,A
1781599111485,2391.54827048836,-3630.0444603525643,308.7061995393694,5,A
1781599111506,-877.6158480896071,-1549.5732885967616,2333.9802999463764,5,A
1781599111528,252.16881053660214,892.3697083675783,2756.751235419012,5,A
1781599111550,813.054811273018,1695.6404310532164,2511.1414538587187,5,A
1781599111571,-32.28051840829451,518.8488223187566,2144.7399764491015,5,A
1781599111593,-881.6221766662958,-4457.4133047187715,3030.545746010814,5,A
1781599111615,-1498.5967774763533,-12678.889151406278,3537.870868577977,5,A
1781599111637,6858.604633496244,-18205.391723483466,-3403.625252896536,5,A
1781599111658,18521.027120237006,-27523.332106636866,-11528.879993694427,5,A
1781599111679,13220.654413277876,-33005.65478896635,-5622.166066662462,5,A
1781599111701,4659.130244894156,-33005.65478896635,1593.1245654038528,5,A
1781599111722,5897.08577509096,-33005.65478896635,1758.206549731263,5,A
1781599111744,7183.117248208027,-26209.98447504585,-1579.6706455717365,5,A
1781599111765,3473.256986194305,-19309.88896717622,103.36031659551779,5,A
1781599111788,2059.0229986231993,-17325.81028214269,2007.8427211532003,5,A
1781599111809,3966.0354011270133,-13068.475451908813,803.9521525215997,5,A
1781599111830,3292.972200243314,-9811.212671418549,1568.966226233988,5,A
1781599111852,1069.4598401810938,-5573.959609251809,4544.468333989014,5,A
1781599111873,1089.4914830645373,-3236.4418062366017,4500.178045510928,5,A
1781599111894,684.8522968189801,-2007.4376005275753,5353.772696179488,5,A
1781599111917,1854.7002412120762,-722.2044442305544,4504.204435372572,5,A
1781599111938,1958.864784205982,-553.5175924665704,3815.691769031423,5,A
1781599111960,2030.9786985863784,-2485.38368052553,2813.12069348203,5,A
1781599111981,2014.9533842796236,-3746.518715141982,2084.344128524439,5,A
1781599112003,3873.8898438631736,-14193.054463668705,-1217.295558023763,5,A
1781599112025,8312.901906834237,-31660.176328467904,-4756.49224640897,5,A
1781599112046,6193.554089765922,-33005.65478896635,-3625.076695286964,5,A
1781599112068,4290.548015838796,-33005.65478896635,-1152.8733202374567,5,A
1781599112089,9226.344822319257,-33005.65478896635,-5497.347980951493,5,A
1781599112111,7571.73112014683,-26101.54292748329,-4462.565786508947,5,A
1781599112133,1353.9091691259905,-21237.73870162175,1037.4827644969603,5,A
1781599112155,480.52953940785716,-17293.679453235265,2668.1706584628405,5,A
1781599112176,3553.383557728079,-11835.454892586358,1250.8814271641002,5,A
1781599112198,2335.4596704147184,-10176.700850240515,3590.2139367793507,5,A
1781599112220,2251.326770304256,-6112.150993451186,3888.1667865410177,5,A
1781599112240,2071.041984353265,-3356.9324146394474,4556.547503573946,5,A
1781599112263,1946.845798475916,-3718.4042398479846,5675.8838851110195,5,A
1781599112284,2026.9723700096897,-2127.928208930421,6050.338142243926,5,A
1781599112305,1658.3901409543307,-633.8446647351342,5245.060169915096,5,A
1781599112327,476.5232108311685,-2866.937273801208,4182.093246441041,5,A
1781599112349,-3818.261023379102,-13437.979984344205,4496.151655649284,5,A
1781599112370,5416.3263458883175,-30603.87532813629,-2952.6695883923912,5,A
1781599112392,14658.926372309115,-33005.65478896635,-7651.466556931113,5,A
1781599112415,11109.319253362939,-33005.65478896635,-4442.433837200726,5,A
1781599112435,5728.8199748700345,-33005.65478896635,-1148.8469303758125,5,A
1781599112457,1662.3964695310192,-25270.15772950365,1786.3912787627721,5,A
1781599112478,1341.8901833959244,-21004.790192042914,2015.8955008764885,5,A
1781599112500,2515.744456365709,-20494.713283137535,671.0812870873428,5,A
1781599112521,5019.699816796137,-13281.342193420505,-97.95917648668966,5,A
1781599112542,4198.402458574957,-7365.253320840781,1323.356444673695,5,A
1781599112565,1974.8900985127368,-3377.014182706588,4125.723788378023,5,A
1781599112585,468.5105536777911,-308.5200220474507,6179.182617816538,5,A
1781599112607,-44.29950413836057,579.0941265201794,7922.609427908455,5,A
1781599112629,2343.472327568096,1667.525955759219,5671.8574952493755,5,A
1781599112651,3184.8013286727196,2137.439328530317,4145.855737686244,5,A
1781599112673,3417.1683861206634,3249.969279449926,1899.1301948888083,5,A
1781599112694,-440.9260332305404,-7043.945031766526,1746.1273801463306,5,A
1781599112716,1962.8711127826707,-24631.557504968572,-508.65094237439286,5,A
1781599112738,6770.465404809092,-33005.65478896635,-4893.389501704871,5,A
1781599112759,9791.237151632362,-33005.65478896635,-4973.917298937754,5,A
1781599112781,11201.46481062678,-33005.65478896635,-5650.350795693971,5,A
1781599112802,11237.521767816977,-33005.65478896635,-6238.203715494017,5,A
1781599112824,4294.5543444154855,-27928.983821593116,-2135.312446478629,5,A
1781599112845,1189.6496974817544,-17016.551053908723,965.0077469873656,5,A
1781599112866,320.27639634030976,-9811.212671418549,2317.8747404998,5,A
1781599112888,524.5991537514327,-4244.546563207077,2962.0971183628635,5,A
1781599112909,292.23209630348896,314.0147880339188,3839.850108201288,5,A
1781599112931,556.6497823649422,4659.709397763221,4749.814216932866,5,A
1781599112952,1321.858540512481,7342.633611533252,4125.723788378023,5,A
1781599112974,-380.83110458021014,8178.035163126316,3948.56263446568,5,A
1781599112996,-1246.1980771449662,4595.44773994837,2829.2262529286068,5,A
1781599113018,-4178.830595281083,-5497.648890596673,1625.335684297006,5,A
1781599113040,3617.4848149550976,-28125.785148651095,-4925.600620598024,5,A
1781599113061,13441.002484995755,-33005.65478896635,-8879.515464732578,5,A
1781599113082,20744.539480299227,-33005.65478896635,-7945.393016831136,5,A
1781599113104,14242.268200333492,-33005.65478896635,-5412.793793856967,5,A
1781599113125,564.6624395183196,-29643.966814526953,1424.0161912147987,5,A
1781599113147,-3409.615508556856,-21430.523675066303,5104.13652475755,5,A
1781599113169,364.3460106838853,-12425.858873760302,3272.129137709463,5,A
1781599113190,2167.193870193794,-6268.788784374886,2301.7691810532233,5,A
1781599113212,604.7257252852064,161.3933507236476,4097.539059346514,5,A
1781599113233,-40.29317556167188,3555.2121540704684,5466.511612305524,5,A
1781599113255,624.7573681686498,6563.461010528184,5893.308937639804,5,A
1781599113277,1726.4977267580382,8431.065440772292,3630.477835395792,5,A
1781599113298,720.9092540091783,8258.36223539488,2523.220623443651,5,A
1781599113319,-785.4702908257673,442.5381036636209,473.7881838667795,5,A
1781599113341,1353.9091691259905,-17631.053156763235,-677.7593165634471,5,A
1781599113364,8813.692978920322,-33005.65478896635,-6962.9538905899635,5,A
1781599113384,10921.021810258571,-33005.65478896635,-4378.01159941442,5,A
1781599113406,14114.065685879454,-33005.65478896635,-4518.935244571965,5,A
1781599113428,8753.598050269993,-33005.65478896635,-2135.312446478629,5,A
1781599113449,-4992.115296348887,-27796.444152349985,4548.494723850658,5,A
1781599113471,-3722.1091375385736,-22647.478819935044,5849.018649161719,5,A
1781599113493,2491.7064849055773,-11506.113896285246,469.76179400513536,5,A
1781599113514,2563.8203992859735,-2690.217714810368,880.4535598928385,5,A
1781599113536,91.91566746905472,5246.0970253237365,2684.276217909417,5,A
1781599113557,-1434.4955202493343,9218.270749004218,4838.394793889037,5,A
1781599113578,-1558.6917061266836,8286.476710688878,5756.411682343903,5,A
1781599113600,-1630.80562050708,7868.7759348923455,4508.230825234216,5,A
1781599113622,-929.69811958656,2719.810602477405,1866.919075995655,5,A
1781599113644,-2147.62200689992,-5035.768225052431,2410.481707317615,5,A
1781599113665,-3285.419322679507,-19486.60852616706,3940.509854742392,5,A
1781599113686,3557.3898863047675,-33005.65478896635,-158.35502441135188,5,A
1781599113708,10528.401609743081,-33005.65478896635,-2980.8543174239003,5,A
1781599113731,23036.159426165155,-33005.65478896635,-8384.269511750348,5,A
1781599113750,24450.393413736263,-33005.65478896635,-9080.834957814785,5,A
1781599113773,6273.680661299696,-26961.042600756922,-1080.398302727862,5,A
1781599113794,-5689.216468692718,-19852.096704989024,6312.053483250796,5,A
1781599113816,-2764.596607709978,-13646.830372242472,4935.028150568496,5,A
1781599113837,-192.5336614758419,-7614.267244873329,3779.454260276626,5,A
1781599113860,1141.5737545614902,-1617.851300025041,2950.017948777931,5,A
1781599113880,1742.523041064793,3422.6724848273384,2889.622100853269,5,A
1781599113902,825.0737970030841,7117.717809181274,4620.969741360253,5,A
1781599113924,1494.1306693100946,8892.946106316534,3598.266716502639,5,A
1781599113945,39.83339597210182,7222.143003130406,3235.8916289546655,5,A
1781599113967,-4130.75465236082,129.26252181622206,6251.6576353261335,5,A
1781599113989,-4431.229295612471,-11305.296215613836,5011.529557939735,5,A
1781599114011,2752.1178423903416,-31362.96616107422,2535.2997930285837,5,A
1781599114032,10969.097753178836,-33005.65478896635,-1857.4915460251827,5,A
1781599114054,17595.565219021923,-33005.65478896635,-4784.676975440479,5,A
1781599114076,27342.96264610549,-33005.65478896635,-9511.658673010708,5,A
1781599114097,14715.014972382756,-33005.65478896635,-6044.937002135098,5,A
1781599114118,-3049.0459366548744,-17349.90840382326,3654.6361745656573,5,A
1781599114140,-4403.18499557565,-13096.58992720281,4910.869811398632,5,A
1781599114162,-2011.4068352925049,-6276.821491601741,3711.0056326286754,5,A
1781599114183,833.0864541564615,-388.84709431601453,2269.5580621600698,5,A
1781599114205,1506.1496550401605,3386.5253023064847,2684.276217909417,5,A
1781599114226,-28.274189831605828,8117.789858924893,4033.116821560207,5,A
1781599114248,424.4409393342156,11575.870320086566,2958.0707285012195,5,A
1781599114269,43.83972454879051,9531.546330851615,2128.6344170025245,5,A
1781599114291,-1522.6347489364855,-91.63692692232843,3634.5042252574362,5,A
1781599114313,1818.6432840218781,-8068.115203190715,1597.150955265497,5,A
1781599114334,5508.471903152157,-29121.840844781287,-1785.016528515588,5,A
1781599114356,7098.984348097565,-33005.65478896635,3477.4750206533145,5,A
1781599114377,13128.508856014038,-33005.65478896635,3183.548560753292,5,A
1781599114399,11341.686310810883,-33005.65478896635,-89.90639676340136,5,A
1781599114421,-1598.7549918935704,-29238.315099570704,4773.972556102731,5,A
1781599114442,-2736.552307673157,-23113.375839092714,5084.00457544933,5,A
1781599114463,1165.6117260216224,-14879.850931564926,2639.9859294313314,5,A
1781599114486,-1166.0715056111924,-7292.958955799074,3823.7445487547116,5,A
1781599114506,825.0737970030841,-159.91493835060766,3928.4306851574593,5,A
1781599114528,600.7193967085177,6041.335040782518,4186.119636302685,5,A
1781599114550,-356.793133120078,9117.861908668512,4210.27797547255,5,A
1781599114571,-260.6412472795496,11961.440266975671,4359.254400353383,5,A
1781599114594,1446.0547263898302,7667.9582542209355,1754.1801598696188,5,A
1781599114615,-1742.982820654363,-758.351626751408,4327.04328146023,5,A
1781599114636,-2319.894135697534,-8481.799625373818,2217.214993958696,5,A
1781599114658,-925.6917910098713,-30178.141845112903,3034.572135872458,5,A
1781599114680,10428.243395325864,-33005.65478896635,727.4507451503608,5,A
1781599114701,18360.77397716946,-33005.65478896635,288.57425023114865,5,A
1781599114723,13312.799970541717,-33005.65478896635,872.4007801695502,5,A
1781599114744,-1530.6474060898627,-28945.121285790447,4137.802957962955,5,A
1781599114766,-6406.349283919993,-23607.387333544382,8276.93173573314,5,A
1781599114787,-1746.9891492310517,-16807.700666010456,4210.27797547255,5,A
1781599114809,837.0927827331502,-8136.393214618994,2011.8691110148443,5,A
1781599114830,1886.7508698255856,60.98451038794281,1822.6287875175694,5,A
1781599114852,1257.757283285462,7198.044881449838,3272.129137709463,5,A
1781599114873,300.24475345686636,11929.309438068245,3831.7973284779996,5,A
1781599114895,-356.793133120078,9415.072076062199,3964.668193912257,5,A
1781599114916,1173.6243831749998,7362.715379600393,2197.083044650475,5,A
1781599114938,1726.4977267580382,-143.8495238968949,1432.068970938087,5,A
1781599114960,-753.4196622122579,-16181.14950231566,4149.882127547888,5,A
1781599114982,9807.262465939117,-31603.94737787991,-2260.1305321895975,5,A
1781599115004,13733.464471094028,-33005.65478896635,-2751.350095310184,5,A
1781599115026,10692.661081387316,-33005.65478896635,836.1632714147529,5,A
1781599115047,9566.882751337796,-33005.65478896635,377.15482718731994,5,A
1781599115069,2235.3014559975013,-33005.65478896635,2627.9067598463994,5,A
1781599115090,-480.98931899742723,-21767.897378594273,3026.51935614917,5,A
1781599115111,-869.6031909362297,-12586.51301829743,2909.7540501614894,5,A
1781599115133,668.8269825122254,-6196.494419333178,2438.666436349124,5,A
1781599115154,1089.4914830645373,892.3697083675783,2809.0943036203857,5,A
1781599115177,1157.599068868245,5458.963766835431,4109.618228931446,5,A
1781599115197,1566.2445836904908,8764.422790686831,4395.49190910818,5,A
1781599115219,-288.6855473163704,9495.399148330762,4516.283604957505,5,A
1781599115240,360.3396821071966,6768.295044813021,2744.6720658340796,5,A
1781599115262,2591.8646993227944,-2670.1359467432267,-742.1815543497535,5,A
1781599115284,3064.611471372059,-27033.33696579863,34.91168894756726,5,A
1781599115305,6646.269218931744,-33005.65478896635,-544.8884511291902,5,A
1781599115327,8312.901906834237,-33005.65478896635,240.25757189141885,5,A
1781599115348,4687.1745449309765,-33005.65478896635,393.26038663389653,5,A
1781599115371,4030.136658354032,-33005.65478896635,212.0728428599098,5,A
1781599115392,-905.6601481264279,-28820.614323774174,3328.498595772481,5,A
1781599115414,-2768.6029362866666,-18321.865978272883,2829.2262529286068,5,A
1781599115436,-1362.3816058689379,-14012.318551064436,2865.463761683404,5,A
1781599115456,272.20045342004556,-7256.81177327822,2599.7220308148903,5,A
1781599115478,748.9535540459991,-1380.8864368327777,3417.0791727286523,5,A
1781599115500,1998.9280699728688,5234.047964483452,3429.158342313585,5,A
1781599115521,-236.60327581941746,9973.345228328717,4165.987686994464,5,A
1781599115543,-861.5905337828524,7519.353170524093,4004.932092528698,5,A
1781599115564,-1101.9702483841734,3458.819667348192,2748.6984556957236,5,A
1781599115586,2291.3900560711427,-4871.097726901875,-947.5274372936051,5,A
1781599115607,5256.073202820769,-20109.143336248428,-3778.0795100294417,5,A
1781599115629,10300.040880871826,-33005.65478896635,-6173.78147770771,5,A
1781599115651,6770.465404809092,-33005.65478896635,-605.2842990538525,5,A
1781599115672,6642.262890355055,-33005.65478896635,-625.4162483620731,5,A
1781599115694,4178.370815691514,-33005.65478896635,-758.2871137963301,5,A
1781599115716,-2740.5586362498457,-27712.100726467994,4141.829347824599,5,A
1781599115737,-4150.786295244263,-16739.422654582177,4476.019706341063,5,A
1781599115759,-1670.8689062739668,-8377.374431424685,2696.3553874943495,5,A
1781599115781,877.156068500037,-2067.682904728998,1826.6551773792135,5,A
1781599115802,2595.871027899483,3049.1515987785165,2144.7399764491015,5,A
1781599115823,2359.4976418748506,7145.832284475271,2945.991558916287,5,A
1781599115846,2784.168471003851,11756.606232690834,2201.109434512119,5,A
1781599115866,-933.7044481632487,9563.677159759041,3320.4458160491927,5,A
1781599115888,-4531.387510029688,4912.739675409197,3920.3779054341708,5,A
1781599115910,728.9219111625557,-4260.61197766079,-2380.922228038922,5,A
1781599115931,4490.864444673231,-24374.510873709165,-6922.689991973522,5,A
1781599115954,-689.3184049852389,-33005.65478896635,369.1020474640316,5,A
1781599115975,5143.896002673487,-33005.65478896635,-883.1051995072987,5,A
1781599115997,13264.724027621452,-33005.65478896635,-6938.7955514200985,5,A
1781599116018,6638.256561778367,-33005.65478896635,-3669.3669837650496,5,A
1781599116040,-3730.121794691951,-28684.058300917615,3562.0292077478416,5,A
1781599116062,-1146.0398627277489,-18968.49891003482,2329.9539100847323,5,A
1781599116082,1974.8900985127368,-8935.647583691203,252.3367414763513,5,A
1781599116104,1902.7761841323404,-2236.369756492982,973.0605267106539,5,A
1781599116126,1237.7256404020186,4780.2000061660665,3191.60134047658,5,A
1781599116148,1814.6369554451894,10760.550536560642,3235.8916289546655,5,A
1781599116169,2263.345756034322,14511.824811502573,2648.03870915462,5,A
1781599116191,-1630.80562050708,13162.3299973907,3960.6418040506123,5,A
1781599116212,-3589.900294507847,6679.935265317601,3251.997188401242,5,A
1781599116234,-4343.09006692532,-6678.4568529445605,1371.6731230134246,5,A
1781599116255,-1081.93860550073,-33005.65478896635,-1821.2540372703854,5,A
1781599116277,4510.8960875566745,-33005.65478896635,-2787.587604064981,5,A
1781599116298,6970.7818336435275,-33005.65478896635,-41.58971842367157,5,A
1781599116321,10055.654837693815,-33005.65478896635,-5799.327220574804,5,A
1781599116342,-1658.8499205439007,-25659.744030006186,1287.1189359188975,5,A
1781599116365,-8501.659129528174,-15474.271266352298,7878.319139430369,5,A
1781599116387,-4767.76089605432,-7726.725146049319,5333.640746871267,5,A
1781599116409,-1150.0461913044376,-2212.271634812413,3606.319496225927,5,A
1781599116430,-68.33747559849267,462.6198717307619,3195.627730338224,5,A
1781599116451,123.96629608256421,3523.081325163043,4415.623858416401,5,A
1781599116474,-701.3373907153049,5298.309622298303,5704.0686141425285,5,A
1781599116494,-112.40708994206821,5527.24177826371,3582.1611570560626,5,A
1781599116517,-56.318489868426624,3378.4925950796282,1927.3149239203171,5,A
1781599116537,-2343.932107157666,-1806.6199198561658,1556.8870566490555,5,A
1781599116559,1177.6307117516883,-12562.41489661686,-2562.109771812909,5,A
1781599116581,10107.737109190768,-32857.04970526951,-12680.427494124655,5,A
1781599116603,9310.47772242972,-33005.65478896635,-11182.61046559303,5,A
1781599116624,14454.603614897991,-33005.65478896635,-11037.660430573842,5,A
1781599116646,25708.380586816507,-33005.65478896635,-19859.480617436173,5,A
1781599116668,12483.489955167159,-23872.46667203064,-11049.739600158773,5,A
1781599116689,-589.1601905680218,-16863.92961659845,284.5478603695045,5,A
1781599116711,-4603.501424410084,-14168.956341988136,5192.717101713722,5,A
1781599116732,-1947.305578065486,-8305.080066382978,4363.280790215027,5,A
1781599116754,-1101.9702483841734,-3103.9021369934712,4806.183674995884,5,A
1781599116775,-428.90704750047433,-356.716265408589,4596.811402190388,5,A
1781599116797,-268.65390443292694,631.3067234947458,5144.400423373992,5,A
1781599116818,1542.2066122303588,1386.3812028192458,3819.718158893067,5,A
1781599116840,-52.31216129173794,727.6992102170225,3582.1611570560626,5,A
1781599116861,460.49789652441376,-1111.7907447330888,1665.5995829134476,5,A
1781599116883,-12.248875524851087,-3939.303688586535,-883.1051995072987,5,A
1781599116905,392.3903107207061,-19157.26752986595,-4861.178382811718,5,A
1781599116926,756.9662111993764,-33005.65478896635,-6552.262124702261,5,A
1781599116948,480.52953940785716,-33005.65478896635,-4216.956004948654,5,A
1781599116970,17471.369033144572,-33005.65478896635,-19034.07069579912,5,A
1781599116992,21301.419152458955,-33005.65478896635,-19674.266683800543,5,A
1781599117013,6942.737533606706,-26547.358178573817,-8021.8944242023745,5,A
1781599117034,-633.2298049115973,-20326.02643137355,332.8645387092343,5,A
1781599117056,-1726.9575063476084,-14988.292479127487,3098.9943736587647,5,A
1781599117077,400.40296787408346,-6959.601605884534,3553.9764280245536,5,A
1781599117100,1209.681340365198,-2364.8930721226843,3855.9556676478646,5,A
1781599117121,588.7004109784517,546.9632976127539,5430.274103550727,5,A
1781599117142,380.37132499064006,3000.955355417378,6287.895144080931,5,A
1781599117164,364.3460106838853,2020.9650737408997,6428.818789238476,5,A
1781599117185,620.7510395919612,2338.2570092017268,5208.822661160299,5,A
1781599117207,1385.9597977395001,209.58959408478586,3368.7624943889227,5,A
1781599117228,560.6561109416309,-2862.9209201877798,1717.9426511148215,5,A
1781599117250,6069.357903888573,-16554.67038836448,-4031.742071313023,5,A
1781599117272,7868.199434821792,-33005.65478896635,-3274.7807773239233,5,A
1781599117294,6754.4400905023385,-33005.65478896635,-2876.1681810211526,5,A
1781599117316,14486.6542435115,-33005.65478896635,-9338.52390896001,5,A
1781599117337,18697.30557761131,-33005.65478896635,-12410.659373394496,5,A
1781599117358,8713.534764503105,-27559.47928915772,-6765.6607873694,5,A
1781599117380,-2552.2611931454776,-20269.797480785557,1548.8342769257672,5,A
1781599117402,-4046.621752250357,-11389.639641495829,3384.8680538354993,5,A
1781599117424,-3189.2674368389785,-3790.698604889692,4045.1959911451395,5,A
1781599117444,-1863.1726779550236,-919.0057712885357,3723.084802213608,5,A
1781599117466,-897.6474909730505,1257.8578871895436,4266.647433535568,5,A
1781599117488,-2472.1346216117036,3414.639777600482,5921.493666671313,5,A
1781599117509,-3477.7230943605637,5495.110949356284,6308.027093389152,5,A
1781599117530,-1662.8562491205894,4723.971055578072,2583.6164713683133,5,A
1781599117552,-272.66023300961564,619.2576626544613,-1132.741370929236,5,A
1781599117574,-677.2994192551728,-11887.667489560925,-3298.939116493788,5,A
1781599117595,3220.858285862918,-30125.929248138335,-8267.504205762667,5,A
1781599117617,7984.382963545764,-33005.65478896635,-8895.621024179154,5,A
1781599117639,14698.989658076001,-33005.65478896635,-11098.056278498503,5,A
1781599117661,15247.856673082351,-33005.65478896635,-10381.358883125846,5,A
1781599117682,3204.832971556163,-29186.10250259614,-1857.4915460251827,5,A
1781599117703,-3605.9256088146017,-21422.490967839447,3328.498595772481,5,A
1781599117725,-2323.9004642742225,-14763.376676775508,4121.697398516379,5,A
1781599117746,-420.894390347097,-7590.16912319276,3018.4665764258816,5,A
1781599117768,-472.9766618440499,-2220.3043420392696,3984.8001432204774,5,A
1781599117789,-821.5272480159655,2551.123750713421,5579.25052843156,5,A
1781599117811,-1174.0841627645698,4394.63005927696,6911.985572635774,5,A
1781599117832,-2992.957336581233,6965.096371871003,8707.755450929066,5,A
1781599117854,-3189.2674368389785,8499.343452200572,7322.6773385234765,5,A
1781599117876,-2888.792793587327,3735.948066674737,4182.093246441041,5,A
1781599117897,-3569.8686516244034,-5533.796073117526,1214.6439184093028,5,A
1781599117919,-80.35646132855874,-27222.105585629753,-4208.9032252253655,5,A
1781599117940,7808.104506171462,-33005.65478896635,-9036.5446693367,5,A
1781599117963,20007.37502218851,-33005.65478896635,-14206.429251687787,5,A
1781599117985,16509.850174739287,-33005.65478896635,-11987.88843792186,5,A
1781599118006,2639.9406422430584,-25792.283699249318,-1756.831799484079,5,A
1781599118027,-2892.799122164016,-18908.2536058334,4608.8905717753205,5,A
1781599118050,-144.45771855557769,-10819.317428389026,3553.9764280245536,5,A
1781599118070,957.2826400338107,-5228.553198496984,3405.00000314372,5,A
1781599118092,1045.4218687209618,-726.2207978439825,4037.1432114218514,5,A
1781599118113,264.1877962666682,3599.3920438181785,6171.12983809325,5,A
1781599118135,-276.6665615863043,6338.545208176205,7383.073186448139,5,A
1781599118157,652.8016682054706,8210.16599203374,5748.358902620615,5,A
1781599118178,388.3839821440174,7651.8928397672225,3787.507039999914,5,A
1781599118199,1265.7699404388395,4691.840226670646,393.26038663389653,5,A
1781599118221,-6642.722669944625,-3762.584129595695,1979.6579921216912,5,A
1781599118244,-8373.456615074136,-27169.89298865519,1230.7494778558794,5,A
1781599118266,13212.6417561245,-33005.65478896635,-13618.576331887742,5,A
1781599118287,28116.18406140641,-33005.65478896635,-18168.39687554563,5,A
1781599118309,19362.356121341632,-33005.65478896635,-11146.372956838233,5,A
1781599118330,2183.219184500548,-29635.934107300098,-1865.544325748471,5,A
1781599118351,-4940.033024851934,-23820.254075056077,5567.171358846628,5,A
1781599118373,-1009.8246911203337,-13112.655341656522,3461.369461206738,5,A
1781599118395,1377.9471405861227,-6144.281822358612,1862.8926861340108,5,A
1781599118416,1454.0673835432076,-641.8773719619905,1967.5788225367587,5,A
1781599118438,-985.7867196602016,3808.2424317164446,5454.432442720592,5,A
1781599118459,-653.2614477950407,6973.129079097858,6312.053483250796,5,A
1781599118480,-689.3184049852389,9407.039368835342,4955.160099876717,5,A
1781599118502,-985.7867196602016,11150.136837063177,3409.026393005364,5,A
1781599118523,-1694.9068777340988,6358.626976243346,2152.7927561723895,5,A
1781599118545,-4130.75465236082,-3573.8155097645695,1395.8314621832897,5,A
1781599118567,2091.0736272367085,-33005.65478896635,-2634.5847893225036,5,A
1781599118589,15259.875658812418,-33005.65478896635,-6363.021801204985,5,A
1781599118611,22242.906367980795,-33005.65478896635,-7220.642841735189,5,A
1781599118632,12627.717783927952,-33005.65478896635,-3963.2934436650726,5,A
1781599118653,131.9789532359416,-27708.084372854566,2966.1235082245075,5,A
