timestamp,ax,ay,az,label,subject_id
1781598745972,2555.807742132596,-16345.820000466216,159.7297746585359,1,A
1781598745972,2527.763442095775,-16313.68917155879,195.9672834133332,1,A
1781598745973,2659.972285126502,-16116.887844500809,42.96446867085556,1,A
1781598745973,2716.0608852001433,-16044.593479459101,-29.510548838739123,1,A
1781598745974,2708.0482280467663,-16329.754586012503,51.017248394143856,1,A
1781598745974,2848.26972823087,-16442.21248718849,51.017248394143856,1,A
1781598745975,2704.0418994700776,-16301.640110718505,-110.0383460716221,1,A
1781598745976,2852.2760568075587,-16289.591049878221,-230.83004192094657,1,A
1781598745976,2511.7381277890204,-16136.96961256795,147.65060507360343,1,A
1781598745977,2471.674842022134,-16124.920551727664,232.20479216813055,1,A
1781598745978,2519.750784942398,-16301.640110718505,131.54504562702684,1,A
1781598745979,2579.8457135927283,-16325.738232399075,-110.0383460716221,1,A
1781598745980,2603.8836850528605,-16329.754586012503,-21.457769115450827,1,A
1781598745980,2423.5988991018694,-16229.345745676797,107.38670645716194,1,A
1781598745980,2395.5545990650485,-16257.460220970795,236.23118202977471,1,A
1781598745982,2511.7381277890204,-16181.14950231566,26.85890922427896,1,A
1781598745983,2567.826727862662,-16205.247623996229,-65.74805759353646,1,A
1781598745984,2684.010256586634,-16205.247623996229,-53.668888008604014,1,A
1781598745984,2607.890013629549,-16193.198563155944,-89.90639676340136,1,A
1781598745985,2607.890013629549,-16301.640110718505,-230.83004192094657,1,A
1781598745987,2511.7381277890204,-16365.901768533357,-222.77726219765827,1,A
1781598745987,2567.826727862662,-16177.13314870223,34.91168894756726,1,A
1781598745988,2663.9786137031906,-16209.263977609657,-29.510548838739123,1,A
1781598745988,2720.067213776832,-16349.836354079644,-154.32863454970774,1,A
1781598745989,2716.0608852001433,-16317.705525172218,-122.11751565655454,1,A
1781598745989,2591.8646993227944,-16365.901768533357,95.30753687222949,1,A
1781598745990,2535.7760992491526,-16389.999890213927,-77.82722717846892,1,A
1781598745990,2571.833056439351,-16498.441437776484,-182.5133635812168,1,A
1781598745991,2639.9406422430584,-16309.672817945362,-65.74805759353646,1,A
1781598745991,2467.668513445445,-16261.476574584223,163.75616452018002,1,A
1781598745992,2539.7824278258413,-16277.541989037936,87.2547571489412,1,A
1781598745992,2712.054556623455,-16317.705525172218,-106.01195620997795,1,A
1781598745993,2599.877356476172,-16120.904198114236,6.726959916058218,1,A
1781598745993,2323.4406846846523,-16028.528065005388,75.17558756400875,1,A
1781598745994,2615.902670782926,-16317.705525172218,-41.58971842367157,1,A
1781598745995,2828.2380853474265,-16341.803646852788,-275.1203303990322,1,A
1781598745995,2667.9849422798793,-16213.280331223084,-81.85361704011306,1,A
1781598745996,2515.744456365709,-16241.394806517083,46.99085853249971,1,A
1781598745996,2692.0229137400115,-16293.60740349165,-114.06473593326625,1,A
1781598745997,2752.1178423903416,-16337.787293239358,-230.83004192094657,1,A
1781598745997,2607.890013629549,-16229.345745676797,-122.11751565655454,1,A
1781598745998,2395.5545990650485,-16289.591049878221,55.043638255788004,1,A
1781598745998,2539.7824278258413,-16353.852707693071,10.753349777702367,1,A
1781598745999,2459.6558562920677,-16297.623757105077,-5.352209668874229,1,A
1781598745999,2511.7381277890204,-16305.656464331934,2.7005700544140683,1,A
1781598745999,2523.7571135190865,-16189.182209542516,-81.85361704011306,1,A
1781598746000,2595.871027899483,-16309.672817945362,-89.90639676340136,1,A
1781598746000,2627.9216565129923,-16389.999890213927,-118.0911257949104,1,A
1781598746000,2435.6178848319355,-16237.378452903655,42.96446867085556,1,A
1781598746002,2519.750784942398,-16092.78972282024,22.832519362634812,1,A
1781598746002,2439.624213408624,-16305.656464331934,51.017248394143856,1,A
1781598746003,2567.826727862662,-16341.803646852788,-154.32863454970774,1,A
1781598746004,2744.105185236964,-16357.869061306501,-170.43419399628434,1,A
1781598746004,2543.78875640253,-16245.41116013051,-9.378599530518379,1,A
1781598746005,2515.744456365709,-16028.528065005388,2.7005700544140683,1,A
1781598746005,2435.6178848319355,-16305.656464331934,111.41309631880608,1,A
1781598746006,2720.067213776832,-16434.179779961636,-25.484158977094975,1,A
1781598746006,2611.8963422062375,-16269.50928181108,-93.93278662504551,1,A
1781598746007,2379.529284758294,-16209.263977609657,-1.3258198072300804,1,A
1781598746007,2503.725470635643,-16281.558342651364,38.93807880921141,1,A
1781598746008,2439.624213408624,-16225.32939206337,34.91168894756726,1,A
1781598746010,2635.9343136663697,-16193.198563155944,95.30753687222949,1,A
1781598746010,2491.7064849055773,-16197.214916769373,-33.536938700383274,1,A
1781598746011,2495.712813482266,-16321.721878785645,51.017248394143856,1,A
1781598746011,2579.8457135927283,-16353.852707693071,2.7005700544140683,1,A
1781598746011,2379.529284758294,-16285.574696264792,123.49226590373854,1,A
1781598746012,2503.725470635643,-16269.50928181108,252.3367414763513,1,A
1781598746012,2591.8646993227944,-16273.525635424508,-69.7744474551806,1,A
1781598746012,2639.9406422430584,-16185.165855929088,-29.510548838739123,1,A
1781598746013,2471.674842022134,-16337.787293239358,107.38670645716194,1,A
1781598746013,2483.6938277522,-16177.13314870223,26.85890922427896,1,A
1781598746014,2287.383727494454,-16145.002319794807,167.78255438182418,1,A
1781598746014,2451.6431991386903,-16482.376023322773,-73.80083731682475,1,A
1781598746015,2840.2570710774926,-16454.261548028775,-315.3842290154737,1,A
1781598746015,2651.9596279731245,-16136.96961256795,-25.484158977094975,1,A
1781598746016,2339.465998991407,-16112.87149088738,179.8617239667566,1,A
1781598746016,2279.371070341077,-16277.541989037936,240.25757189141885,1,A
1781598746017,2539.7824278258413,-16418.11436550792,18.806129500990664,1,A
1781598746017,2591.8646993227944,-16434.179779961636,-13.404989392162527,1,A
1781598746018,2427.605227678558,-16454.261548028775,38.93807880921141,1,A
1781598746018,2563.8203992859735,-16084.757015593383,46.99085853249971,1,A
1781598746018,2467.668513445445,-16072.7079547531,-49.642498146959866,1,A
1781598746019,2451.6431991386903,-16233.362099290227,91.28114701058534,1,A
1781598746019,2643.946970819747,-16325.738232399075,71.1491977023646,1,A
1781598746020,2531.769770672464,-16257.460220970795,320.78536912430184,1,A
1781598746020,2495.712813482266,-16237.378452903655,42.96446867085556,1,A
1781598746020,2631.927985089681,-16305.656464331934,63.0964179790763,1,A
1781598746021,2555.807742132596,-16257.460220970795,26.85890922427896,1,A
1781598746021,2559.814070709285,-16237.378452903655,107.38670645716194,1,A
1781598746022,2599.877356476172,-16245.41116013051,30.885299085923112,1,A
1781598746022,2483.6938277522,-16245.41116013051,-49.642498146959866,1,A
1781598746022,2403.567256218426,-16277.541989037936,75.17558756400875,1,A
1781598746022,2499.7191420589543,-16217.296684836514,-25.484158977094975,1,A
1781598746023,2571.833056439351,-16165.084087861947,228.17840230648642,1,A
1781598746023,2447.6368705620016,-16265.492928197651,199.99367327497737,1,A
1781598746024,2800.193785310606,-16253.443867357368,-57.69527787024816,1,A
1781598746043,2611.8963422062375,-16325.738232399075,14.779739639346515,1,A
1781598746064,2491.7064849055773,-16309.672817945362,232.20479216813055,1,A
1781598746085,2355.491313298162,-16181.14950231566,264.41591106128374,1,A
1781598746107,2287.383727494454,-16229.345745676797,248.31035161470714,1,A
1781598746129,2724.0735423535207,-16068.69160113967,-146.27585482641945,1,A
1781598746150,2619.908999359615,-16345.820000466216,79.2019774256529,1,A
1781598746171,2395.5545990650485,-16261.476574584223,191.94089355168907,1,A
1781598746193,2543.78875640253,-16293.60740349165,155.70338479689173,1,A
1781598746215,2483.6938277522,-16410.081658281066,151.6769949352476,1,A
1781598746236,2535.7760992491526,-16317.705525172218,99.33392673387364,1,A
1781598746257,2591.8646993227944,-16217.296684836514,119.4658760420944,1,A
1781598746279,2587.8583707461057,-16197.214916769373,18.806129500990664,1,A
1781598746301,2527.763442095775,-16273.525635424508,71.1491977023646,1,A
1781598746323,2491.7064849055773,-16297.623757105077,83.22836728729705,1,A
1781598746345,2539.7824278258413,-16337.787293239358,91.28114701058534,1,A
1781598746366,2531.769770672464,-16289.591049878221,59.07002811743215,1,A
1781598746387,2407.5735847951146,-16317.705525172218,256.36313133799547,1,A
1781598746409,2647.953299396436,-16317.705525172218,187.9145036900449,1,A
1781598746430,2675.9975994332567,-16333.77093962593,26.85890922427896,1,A
1781598746452,2459.6558562920677,-16329.754586012503,30.885299085923112,1,A
1781598746474,2006.9407271262462,-16128.936905341094,272.46869078457206,1,A
1781598746496,2479.687499175511,-16325.738232399075,87.2547571489412,1,A
1781598746518,2615.902670782926,-16241.394806517083,18.806129500990664,1,A
1781598746538,2591.8646993227944,-16181.14950231566,-21.457769115450827,1,A
1781598746561,2567.826727862662,-16285.574696264792,191.94089355168907,1,A
1781598746582,2411.5799133718033,-16277.541989037936,369.1020474640316,1,A
1781598746604,2531.769770672464,-16265.492928197651,79.2019774256529,1,A
1781598746625,2663.9786137031906,-16269.50928181108,51.017248394143856,1,A
1781598746647,2535.7760992491526,-16237.378452903655,179.8617239667566,1,A
1781598746669,2515.744456365709,-16293.60740349165,260.3895211996396,1,A
1781598746690,2419.5925705251807,-16269.50928181108,111.41309631880608,1,A
1781598746712,2391.54827048836,-16281.558342651364,103.36031659551779,1,A
1781598746733,2736.092528083587,-16169.100441475375,-37.56332856202742,1,A
1781598746755,2571.833056439351,-16157.05138063509,87.2547571489412,1,A
1781598746776,2543.78875640253,-16389.999890213927,147.65060507360343,1,A
1781598746798,2567.826727862662,-16337.787293239358,-5.352209668874229,1,A
1781598746819,2611.8963422062375,-16201.231270382801,135.57143548867097,1,A
1781598746841,2551.8014135559074,-16064.675247526242,308.7061995393694,1,A
1781598746862,2175.206527347171,-16317.705525172218,393.26038663389653,1,A
1781598746884,2655.965956549813,-16566.719449204764,10.753349777702367,1,A
1781598746905,2864.295042537625,-16462.29425525563,2.7005700544140683,1,A
1781598746928,2507.7317992123317,-16056.642540299386,248.31035161470714,1,A
1781598746949,2287.383727494454,-15984.348175257679,401.3131663571848,1,A
1781598746971,2583.852042169417,-16165.084087861947,284.5478603695045,1,A
1781598746993,2503.725470635643,-16522.539559457055,-230.83004192094657,1,A
1781598747014,2912.370985457889,-16466.31060886906,-283.1731101223205,1,A
1781598747035,2768.1431566970964,-16153.035027021662,67.12280784072045,1,A
1781598747056,2511.7381277890204,-15988.364528871107,268.44230092292787,1,A
1781598747078,2591.8646993227944,-16124.920551727664,268.44230092292787,1,A
1781598747100,2399.560927641737,-16514.5068522302,139.59782535031513,1,A
1781598747122,1598.2952123040004,-16084.757015593383,167.78255438182418,1,A
1781598747143,2984.4848998382854,-16984.420225001297,-476.43982348123967,1,A
1781598747165,2607.890013629549,-16301.640110718505,-146.27585482641945,1,A
1781598747187,2215.269813114058,-16165.084087861947,340.91731843252256,1,A
1781598747208,2259.3394274576335,-16140.985966181377,288.57425023114865,1,A
1781598747229,2407.5735847951146,-16249.427513743938,119.4658760420944,1,A
1781598747251,2467.668513445445,-16394.016243827355,155.70338479689173,1,A
1781598747273,2435.6178848319355,-16185.165855929088,135.57143548867097,1,A
1781598747294,2720.067213776832,-16241.394806517083,-53.668888008604014,1,A
1781598747316,2491.7064849055773,-16205.247623996229,30.885299085923112,1,A
1781598747337,2335.4596704147184,-16132.953258954522,155.70338479689173,1,A
1781598747359,2696.0292423167,-15831.726737947407,-170.43419399628434,1,A
1781598747380,2647.953299396436,-16233.362099290227,-363.70090735520347,1,A
1781598747402,2856.2823853842474,-16622.94839979276,-186.53975344286093,1,A
1781598747423,2647.953299396436,-16072.7079547531,-218.7508723360141,1,A
1781598747445,2107.0989415434633,-15659.023532569994,10.753349777702367,1,A
1781598747467,2467.668513445445,-16466.31060886906,-371.7536870784918,1,A
1781598747488,2916.377314034578,-16988.436578614725,-484.49260320452794,1,A
1781598747510,2952.434271224776,-16365.901768533357,-1.3258198072300804,1,A
1781598747532,2319.4343561079636,-15683.121654250564,864.348000446262,1,A
1781598747553,1730.504055334727,-15920.086517442827,465.73540414349117,1,A
1781598747575,3240.8899287463614,-16554.67038836448,-552.9412308524785,1,A
1781598747596,3140.7317143291443,-16831.798787691027,-65.74805759353646,1,A
1781598747618,2247.3204417275674,-16217.296684836514,739.5299147352933,1,A
1781598747639,2499.7191420589543,-15984.348175257679,397.28677649554066,1,A
1781598747661,2748.111513813653,-16297.623757105077,-154.32863454970774,1,A
1781598747682,3016.535528451795,-16486.3923769362,-271.09394053738805,1,A
1781598747704,2535.7760992491526,-16092.78972282024,135.57143548867097,1,A
1781598747726,2487.7001563288886,-16068.69160113967,272.46869078457206,1,A
1781598747747,2583.852042169417,-16345.820000466216,111.41309631880608,1,A
1781598747768,2663.9786137031906,-16454.261548028775,-85.88000690175721,1,A
1781598747790,2655.965956549813,-16189.182209542516,-110.0383460716221,1,A
1781598747812,2619.908999359615,-16205.247623996229,-25.484158977094975,1,A
1781598747833,2820.2254281940495,-16349.836354079644,26.85890922427896,1,A
1781598747855,2756.1241709670303,-16470.326962482486,220.12562258319812,1,A
1781598747876,2555.807742132596,-16301.640110718505,284.5478603695045,1,A
1781598747898,2776.155813850474,-16161.06773424852,14.779739639346515,1,A
1781598747919,2579.8457135927283,-16136.96961256795,204.0200631366215,1,A
1781598747941,2479.687499175511,-16329.754586012503,316.7589792626577,1,A
1781598747962,2239.30778457419,-16088.77336920681,99.33392673387364,1,A
1781598747984,2796.1874567339173,-16185.165855929088,-29.510548838739123,1,A
1781598748006,2591.8646993227944,-15711.23612954456,228.17840230648642,1,A
1781598748028,2479.687499175511,-15209.191927866037,485.86735345171195,1,A
1781598748049,2379.529284758294,-15895.988395762259,767.7146437668024,1,A
1781598748070,2391.54827048836,-16402.04895105421,38.93807880921141,1,A
1781598748092,3517.3266005378805,-17217.36873458013,-862.9732501990779,1,A
1781598748114,3292.972200243314,-16731.38994735532,-673.732926701803,1,A
1781598748136,2299.40271322452,-15843.775798787692,240.25757189141885,1,A
1781598748157,2175.206527347171,-16060.658893912814,208.04645299826566,1,A
1781598748178,2471.674842022134,-16474.343316095918,91.28114701058534,1,A
1781598748200,2387.5419419116715,-16253.443867357368,131.54504562702684,1,A
1781598748222,2700.035570893389,-16136.96961256795,-53.668888008604014,1,A
1781598748243,2892.3393425744457,-16241.394806517083,-154.32863454970774,1,A
1781598748264,2864.295042537625,-16177.13314870223,-106.01195620997795,1,A
1781598748286,2860.288713960936,-16257.460220970795,111.41309631880608,1,A
1781598748308,2631.927985089681,-16317.705525172218,272.46869078457206,1,A
1781598748329,2451.6431991386903,-16229.345745676797,228.17840230648642,1,A
1781598748350,3008.5228712984176,-16313.68917155879,-110.0383460716221,1,A
1781598748372,2936.408956918021,-16181.14950231566,63.0964179790763,1,A
1781598748394,2531.769770672464,-16032.544418618816,284.5478603695045,1,A
1781598748415,2415.586241948492,-16092.78972282024,385.2076069106082,1,A
1781598748436,2780.1621424271625,-16598.85027811219,-73.80083731682475,1,A
1781598748458,3000.51021414504,-16285.574696264792,-198.6189230277934,1,A
1781598748480,2772.149485273785,-16153.035027021662,99.33392673387364,1,A
1781598748502,2323.4406846846523,-15980.33182164425,501.97291289828854,1,A
1781598748523,2231.2951274208126,-16221.313038449942,224.15201244484226,1,A
1781598748544,2760.130499543719,-16136.96961256795,-65.74805759353646,1,A
1781598748567,2311.421698954586,-16157.05138063509,433.524285250338,1,A
1781598748588,2700.035570893389,-15948.200992736825,240.25757189141885,1,A
1781598748609,3044.5798284886155,-15783.530494586268,-85.88000690175721,1,A
1781598748631,3224.8646144396066,-16622.94839979276,-271.09394053738805,1,A
1781598748653,3020.5418570284837,-16522.539559457055,-13.404989392162527,1,A
1781598748674,2503.725470635643,-15968.282760803966,87.2547571489412,1,A
1781598748696,2131.1369130035955,-16112.87149088738,381.1812170489641,1,A
1781598748717,2467.668513445445,-16341.803646852788,30.885299085923112,1,A
1781598748738,2539.7824278258413,-16365.901768533357,51.017248394143856,1,A
1781598748760,2728.0798709302094,-16032.544418618816,-73.80083731682475,1,A
1781598748782,2467.668513445445,-16229.345745676797,252.3367414763513,1,A
1781598748804,2379.529284758294,-16185.165855929088,284.5478603695045,1,A
1781598748825,2599.877356476172,-16108.855137273953,83.22836728729705,1,A
1781598748847,2539.7824278258413,-16414.098011894494,-142.24946496477529,1,A
1781598748868,2688.016585163323,-16570.73580281819,-194.59253316614922,1,A
1781598748890,2575.8393850160396,-16273.525635424508,79.2019774256529,1,A
1781598748911,2603.8836850528605,-16012.462650551675,115.43948618045023,1,A
1781598748933,2095.079955813397,-16201.231270382801,433.524285250338,1,A
1781598748954,2347.4786561447845,-16502.457791389912,264.41591106128374,1,A
1781598748976,2732.086199506898,-16542.621327524193,83.22836728729705,1,A
1781598748998,2475.6811705988225,-16060.658893912814,131.54504562702684,1,A
1781598749019,2299.40271322452,-16036.560772232246,320.78536912430184,1,A
1781598749041,2307.4153703778975,-16293.60740349165,401.3131663571848,1,A
1781598749062,3124.7064000223895,-16486.3923769362,-77.82722717846892,1,A
1781598749084,3068.6177999487477,-16245.41116013051,51.017248394143856,1,A
1781598749105,2371.5166276049167,-16153.035027021662,373.12843732567575,1,A
1781598749127,2335.4596704147184,-16068.69160113967,409.3659460804731,1,A
1781598749149,2663.9786137031906,-16249.427513743938,240.25757189141885,1,A
1781598749170,2591.8646993227944,-16430.16342634821,167.78255438182418,1,A
1781598749192,2796.1874567339173,-16317.705525172218,139.59782535031513,1,A
1781598749213,2776.155813850474,-16189.182209542516,55.043638255788004,1,A
1781598749234,2495.712813482266,-16261.476574584223,191.94089355168907,1,A
1781598749256,2647.953299396436,-16165.084087861947,163.75616452018002,1,A
1781598749278,2599.877356476172,-16169.100441475375,332.8645387092343,1,A
1781598749299,2303.409041801209,-16317.705525172218,614.7118290243247,1,A
1781598749320,2563.8203992859735,-16389.999890213927,449.6298446969146,1,A
1781598749342,2736.092528083587,-16530.57226668391,119.4658760420944,1,A
1781598749363,2415.586241948492,-16297.623757105077,272.46869078457206,1,A
1781598749386,2591.8646993227944,-16365.901768533357,381.1812170489641,1,A
1781598749407,2756.1241709670303,-16112.87149088738,87.2547571489412,1,A
1781598749429,2671.991270856568,-15823.694030720551,171.80894424346832,1,A
1781598749450,2643.946970819747,-16217.296684836514,175.83533410511248,1,A
1781598749471,2836.250742500804,-16426.14707273478,232.20479216813055,1,A
1781598749493,2828.2380853474265,-15980.33182164425,264.41591106128374,1,A
1781598749515,2467.668513445445,-16221.313038449942,421.4451156654056,1,A
1781598749536,2547.7950849792187,-16381.96718298707,163.75616452018002,1,A
1781598749558,2876.314028267691,-16281.558342651364,191.94089355168907,1,A
1781598749579,3064.611471372059,-16028.528065005388,497.9465230366444,1,A
1781598749601,2563.8203992859735,-15815.661323493694,731.4771350120051,1,A
1781598749623,2607.890013629549,-15755.416019292272,546.2632013763741,1,A
1781598749644,2908.3646568812005,-16707.29182567475,268.44230092292787,1,A
1781598749667,2696.0292423167,-16739.422654582177,389.23399677225234,1,A
1781598749688,1942.8394698992272,-16084.757015593383,622.764608747613,1,A
1781598749709,2459.6558562920677,-16032.544418618816,-9.378599530518379,1,A
1781598749731,3088.649442832191,-16353.852707693071,55.043638255788004,1,A
1781598749753,3136.7253857524556,-16052.626186685957,143.62421521195927,1,A
1781598749774,2595.871027899483,-16020.495357778533,373.12843732567575,1,A
1781598749795,2856.2823853842474,-16261.476574584223,-25.484158977094975,1,A
1781598749816,3068.6177999487477,-16590.817570885334,-158.35502441135188,1,A
1781598749838,2952.434271224776,-16157.05138063509,300.6534198160811,1,A
1781598749860,2639.9406422430584,-16116.887844500809,340.91731843252256,1,A
1781598749882,2808.2064424639834,-16337.787293239358,357.02287787909916,1,A
1781598749903,2988.491228414974,-16341.803646852788,308.7061995393694,1,A
1781598749925,2383.535613334983,-16205.247623996229,699.2660161188518,1,A
1781598749946,2415.586241948492,-16092.78972282024,791.8729829366672,1,A
1781598749968,2760.130499543719,-16285.574696264792,284.5478603695045,1,A
1781598749989,3156.7570286358987,-16149.018673408234,256.36313133799547,1,A
1781598750011,2487.7001563288886,-16273.525635424508,538.2104216530859,1,A
1781598750033,2539.7824278258413,-16434.179779961636,385.2076069106082,1,A
1781598750054,2944.4216140713984,-16269.50928181108,30.885299085923112,1,A
1781598750076,2900.351999727823,-16032.544418618816,212.0728428599098,1,A
1781598750103,2383.535613334983,-15916.0701638294,477.8145737284236,1,A
1781598750118,2688.016585163323,-16373.934475760212,-17.431379253806675,1,A
1781598750141,3140.7317143291443,-16237.378452903655,-351.621737770271,1,A
1781598750162,3148.7443714825213,-15940.168285509968,-339.5425681853386,1,A
1781598750183,2615.902670782926,-15928.119224669683,127.51865576538269,1,A
1781598750205,2295.3963846478314,-16229.345745676797,204.0200631366215,1,A
1781598750226,2872.307699691002,-16325.738232399075,99.33392673387364,1,A
1781598750248,2900.351999727823,-16289.591049878221,493.9201331750002,1,A
1781598750269,2740.0988566602755,-16261.476574584223,510.0256926215768,1,A
1781598750291,3184.8013286727196,-16173.116795088803,147.65060507360343,1,A
1781598750312,3144.738042905833,-16032.544418618816,578.4743202695273,1,A
1781598750334,2768.1431566970964,-16145.002319794807,751.6090843202257,1,A
1781598750356,3120.700071445701,-16687.210057607608,433.524285250338,1,A
1781598750377,3180.795000096031,-16341.803646852788,139.59782535031513,1,A
1781598750399,2840.2570710774926,-15936.15193189654,256.36313133799547,1,A
1781598750421,2856.2823853842474,-15960.250053577109,385.2076069106082,1,A
1781598750442,3116.693742869012,-16145.002319794807,163.75616452018002,1,A
1781598750463,3353.0671288936446,-16153.035027021662,6.726959916058218,1,A
1781598750486,3168.776014365965,-16020.495357778533,83.22836728729705,1,A
1781598750506,2860.288713960936,-16120.904198114236,199.99367327497737,1,A
1781598750528,2872.307699691002,-16233.362099290227,163.75616452018002,1,A
1781598750550,2896.3456711511344,-16345.820000466216,99.33392673387364,1,A
1781598750570,2852.2760568075587,-16369.918122146784,264.41591106128374,1,A
1781598750592,2768.1431566970964,-16241.394806517083,401.3131663571848,1,A
1781598750614,2800.193785310606,-16233.362099290227,703.292405980496,1,A
1781598750636,2884.3266854210683,-16197.214916769373,510.0256926215768,1,A
1781598750657,2784.168471003851,-16337.787293239358,659.0021175024103,1,A
1781598750679,3044.5798284886155,-16233.362099290227,429.49789538869385,1,A
1781598750701,2776.155813850474,-16189.182209542516,421.4451156654056,1,A
1781598750722,2960.446928378153,-16217.296684836514,183.88811382840078,1,A
1781598750744,2844.2633996541813,-16245.41116013051,256.36313133799547,1,A
1781598750765,2828.2380853474265,-16056.642540299386,228.17840230648642,1,A
1781598750787,2744.105185236964,-16040.577125845673,59.07002811743215,1,A
1781598750808,2928.396299764644,-16124.920551727664,-222.77726219765827,1,A
1781598750830,3084.6431142555025,-16157.05138063509,-154.32863454970774,1,A
1781598750851,2944.4216140713984,-16241.394806517083,111.41309631880608,1,A
1781598750873,2944.4216140713984,-16233.362099290227,123.49226590373854,1,A
1781598750894,3224.8646144396066,-16189.182209542516,46.99085853249971,1,A
1781598750916,2844.2633996541813,-16157.05138063509,510.0256926215768,1,A
1781598750937,2599.877356476172,-16285.574696264792,437.5506751119822,1,A
1781598750959,2960.446928378153,-16165.084087861947,296.6270299544369,1,A
1781598750981,3068.6177999487477,-16297.623757105077,276.4950806462162,1,A
1781598751002,2992.497556991663,-16430.16342634821,461.70901428184703,1,A
1781598751023,3120.700071445701,-16353.852707693071,352.996488017455,1,A
1781598751045,3353.0671288936446,-16120.904198114236,377.15482718731994,1,A
1781598751067,2932.4026283413323,-16213.280331223084,675.107676948987,1,A
1781598751088,2844.2633996541813,-16197.214916769373,751.6090843202257,1,A
1781598751111,2996.5038855683515,-16124.920551727664,530.1576419297976,1,A
1781598751132,3268.934228783182,-16317.705525172218,264.41591106128374,1,A
1781598751153,2856.2823853842474,-16092.78972282024,365.0756576023875,1,A
1781598751175,2764.1368281204077,-15956.233699963681,457.6826244202029,1,A
1781598751200,2756.1241709670303,-15980.33182164425,191.94089355168907,1,A
1781598751218,3052.592485641993,-16253.443867357368,51.017248394143856,1,A
1781598751239,2724.0735423535207,-16305.656464331934,276.4950806462162,1,A
1781598751260,2403.567256218426,-16084.757015593383,328.8381488475901,1,A
1781598751283,2667.9849422798793,-16261.476574584223,83.22836728729705,1,A
1781598751305,2756.1241709670303,-16550.654034751053,34.91168894756726,1,A
1781598751326,2964.453256954842,-16337.787293239358,-49.642498146959866,1,A
1781598751348,2716.0608852001433,-16153.035027021662,501.97291289828854,1,A
1781598751369,2736.092528083587,-16165.084087861947,634.8437783325454,1,A
1781598751390,2944.4216140713984,-16341.803646852788,441.5770649736263,1,A
1781598751412,3357.0734574703333,-16349.836354079644,316.7589792626577,1,A
1781598751434,3116.693742869012,-16108.855137273953,328.8381488475901,1,A
1781598751456,3040.573499911927,-15895.988395762259,554.3159810996625,1,A
1781598751477,3076.630457102125,-16084.757015593383,280.52147050786033,1,A
1781598751498,3276.9468859365593,-16157.05138063509,42.96446867085556,1,A
1781598751520,3533.3519148446353,-16197.214916769373,-1.3258198072300804,1,A
1781598751541,3068.6177999487477,-15956.233699963681,316.7589792626577,1,A
1781598751563,2872.307699691002,-15948.200992736825,433.524285250338,1,A
1781598751585,3028.554514181861,-16136.96961256795,187.9145036900449,1,A
1781598751606,3224.8646144396066,-16446.22884080192,-57.69527787024816,1,A
1781598751628,3092.65577140888,-16373.934475760212,175.83533410511248,1,A
1781598751649,2876.314028267691,-16084.757015593383,582.5007101311716,1,A
1781598751670,2623.9153279363036,-16161.06773424852,675.107676948987,1,A
1781598751692,3088.649442832191,-16398.032597440782,582.5007101311716,1,A
1781598751714,2964.453256954842,-16506.47414500334,586.5270999928157,1,A
1781598751735,2888.333013997757,-16185.165855929088,582.5007101311716,1,A
1781598751757,2784.168471003851,-16080.740661979955,590.5534898544598,1,A
1781598751779,2788.17479958054,-16036.560772232246,401.3131663571848,1,A
1781598751800,2804.2001138872947,-16124.920551727664,316.7589792626577,1,A
1781598751822,2820.2254281940495,-16213.280331223084,220.12562258319812,1,A
1781598751843,2591.8646993227944,-16281.558342651364,139.59782535031513,1,A
1781598751865,2736.092528083587,-16100.822430047096,111.41309631880608,1,A
1781598751886,2984.4848998382854,-16145.002319794807,14.779739639346515,1,A
1781598751908,2956.4405998014645,-16297.623757105077,163.75616452018002,1,A
1781598751929,2924.3899711879553,-16253.443867357368,465.73540414349117,1,A
1781598751951,3140.7317143291443,-16092.78972282024,332.8645387092343,1,A
1781598751973,3084.6431142555025,-16201.231270382801,357.02287787909916,1,A
1781598751995,2764.1368281204077,-16313.68917155879,574.4479304078832,1,A
1781598752016,2884.3266854210683,-16181.14950231566,542.23681151473,1,A
1781598752038,3096.6620999855686,-16249.427513743938,505.9993027599327,1,A
1781598752059,2880.3203568443796,-16173.116795088803,546.2632013763741,1,A
1781598752081,3004.516542721729,-16189.182209542516,610.6854391626806,1,A
1781598752102,3300.9848573966915,-16016.479004165103,248.31035161470714,1,A
1781598752124,3124.7064000223895,-16052.626186685957,357.02287787909916,1,A
1781598752146,3092.65577140888,-16153.035027021662,369.1020474640316,1,A
1781598752167,3116.693742869012,-15988.364528871107,183.88811382840078,1,A
1781598752188,3112.6874142923234,-16128.936905341094,163.75616452018002,1,A
1781598752209,3264.927900206493,-16333.77093962593,127.51865576538269,1,A
1781598752230,2976.472242684908,-16185.165855929088,224.15201244484226,1,A
1781598752253,2832.244413924115,-16181.14950231566,530.1576419297976,1,A
1781598752274,3000.51021414504,-16426.14707273478,481.8409635900678,1,A
1781598752296,3104.674757138946,-16514.5068522302,530.1576419297976,1,A
1781598752317,2828.2380853474265,-16249.427513743938,783.8202032133789,1,A
1781598752339,2547.7950849792187,-15944.184639123396,1085.79944283669,1,A
1781598752361,2627.9216565129923,-15956.233699963681,650.9493377791221,1,A
1781598752383,2908.3646568812005,-16321.721878785645,276.4950806462162,1,A
1781598752404,3036.5671713352385,-16357.869061306501,91.28114701058534,1,A
1781598752425,2960.446928378153,-16060.658893912814,264.41591106128374,1,A
1781598752447,2655.965956549813,-15895.988395762259,256.36313133799547,1,A
1781598752470,2920.3836426112666,-16108.855137273953,131.54504562702684,1,A
1781598752492,2936.408956918021,-16221.313038449942,216.09923272155396,1,A
1781598752513,3140.7317143291443,-16197.214916769373,260.3895211996396,1,A
1781598752534,2936.408956918021,-16233.362099290227,304.67980967772525,1,A
1781598752556,2776.155813850474,-16281.558342651364,357.02287787909916,1,A
1781598752578,2884.3266854210683,-16265.492928197651,489.8937433133561,1,A
1781598752600,2812.212771040672,-16233.362099290227,562.3687608229508,1,A
1781598752621,2960.446928378153,-16249.427513743938,570.421540546239,1,A
1781598752642,3028.554514181861,-16281.558342651364,578.4743202695273,1,A
1781598752664,3092.65577140888,-16128.936905341094,505.9993027599327,1,A
1781598752685,3028.554514181861,-16173.116795088803,465.73540414349117,1,A
1781598752707,2988.491228414974,-16024.51171139196,385.2076069106082,1,A
1781598752729,3160.7633572125874,-16193.198563155944,272.46869078457206,1,A
1781598752750,3140.7317143291443,-16056.642540299386,280.52147050786033,1,A
1781598752772,2972.4659141082193,-15940.168285509968,340.91731843252256,1,A
1781598752793,3333.035486010201,-16197.214916769373,-5.352209668874229,1,A
1781598752815,3321.016500280135,-16297.623757105077,2.7005700544140683,1,A
1781598752837,3064.611471372059,-16096.806076433668,429.49789538869385,1,A
1781598752858,2635.9343136663697,-16221.313038449942,691.2132363955635,1,A
1781598752880,3088.649442832191,-16241.394806517083,518.0784723448651,1,A
1781598752901,3136.7253857524556,-16325.738232399075,578.4743202695273,1,A
1781598752923,2916.377314034578,-16153.035027021662,820.0577119681762,1,A
1781598752944,2684.010256586634,-16076.724308366527,928.7702382325683,1,A
1781598752966,2655.965956549813,-16120.904198114236,719.3979654270726,1,A
1781598752988,2860.288713960936,-16116.887844500809,288.57425023114865,1,A
1781598753009,2872.307699691002,-16229.345745676797,220.12562258319812,1,A
1781598753031,3012.5291998751063,-16132.953258954522,199.99367327497737,1,A
1781598753053,2924.3899711879553,-15980.33182164425,332.8645387092343,1,A
1781598753074,3080.636785678814,-16217.296684836514,147.65060507360343,1,A
1781598753095,3104.674757138946,-16329.754586012503,-25.484158977094975,1,A
1781598753117,3196.8203144027857,-16185.165855929088,6.726959916058218,1,A
1781598753139,3036.5671713352385,-16044.593479459101,449.6298446969146,1,A
1781598753160,2920.3836426112666,-16181.14950231566,546.2632013763741,1,A
1781598753182,3092.65577140888,-16385.9835366005,542.23681151473,1,A
1781598753203,2984.4848998382854,-16313.68917155879,787.8465930750231,1,A
1781598753225,3232.877271592984,-16100.822430047096,699.2660161188518,1,A
1781598753247,3068.6177999487477,-16197.214916769373,683.1604566722752,1,A
1781598753268,3353.0671288936446,-16136.96961256795,469.76179400513536,1,A
1781598753290,3345.054471740267,-15980.33182164425,429.49789538869385,1,A
1781598753311,3304.99118597338,-15936.15193189654,232.20479216813055,1,A
1781598753333,3280.953214513248,-16000.413589711392,252.3367414763513,1,A
1781598753354,3168.776014365965,-16136.96961256795,453.65623455855877,1,A
1781598753376,3236.8836001696727,-16024.51171139196,308.7061995393694,1,A
1781598753397,3341.0481431635785,-16052.626186685957,191.94089355168907,1,A
1781598753419,3292.972200243314,-16209.263977609657,135.57143548867097,1,A
1781598753441,3313.0038431267576,-16269.50928181108,204.0200631366215,1,A
1781598753462,3016.535528451795,-16365.901768533357,578.4743202695273,1,A
1781598753484,2848.26972823087,-16249.427513743938,630.8173884709013,1,A
1781598753505,2828.2380853474265,-16225.32939206337,803.9521525215997,1,A
1781598753527,2964.453256954842,-16309.672817945362,642.8965580558338,1,A
1781598753548,3064.611471372059,-16088.77336920681,747.5826944585816,1,A
1781598753570,2824.231756770738,-15791.563201813125,703.292405980496,1,A
1781598753591,2976.472242684908,-16305.656464331934,401.3131663571848,1,A
1781598753613,2844.2633996541813,-16177.13314870223,634.8437783325454,1,A
1781598753635,2619.908999359615,-16004.42994332482,723.4243552887167,1,A
1781598753656,2635.9343136663697,-15936.15193189654,437.5506751119822,1,A
1781598753678,3473.256986194305,-16546.637681137625,-190.5661433045051,1,A
1781598753699,3625.497472108475,-16104.838783660523,-528.7828916826136,1,A
1781598753721,3284.9595430899367,-15683.121654250564,-33.536938700383274,1,A
1781598753743,2796.1874567339173,-16181.14950231566,542.23681151473,1,A
1781598753764,3012.5291998751063,-16317.705525172218,224.15201244484226,1,A
1781598753786,3393.130414660531,-16249.427513743938,-37.56332856202742,1,A
1781598753808,3236.8836001696727,-16209.263977609657,324.81175898594597,1,A
1781598753829,3361.079786047022,-16245.41116013051,409.3659460804731,1,A
1781598753850,3148.7443714825213,-16116.887844500809,711.3451857037843,1,A
1781598753872,2832.244413924115,-16165.084087861947,731.4771350120051,1,A
1781598753894,3437.200029004107,-16546.637681137625,369.1020474640316,1,A
1781598753916,3220.858285862918,-16389.999890213927,171.80894424346832,1,A
1781598753938,2984.4848998382854,-15847.79215240112,312.7325894010135,1,A
1781598753958,2748.111513813653,-16040.577125845673,381.1812170489641,1,A
1781598753981,3212.8456287095405,-16321.721878785645,191.94089355168907,1,A
1781598754002,3333.035486010201,-16136.96961256795,-186.53975344286093,1,A
1781598754024,3321.016500280135,-16241.394806517083,107.38670645716194,1,A
1781598754045,3016.535528451795,-16526.555913070482,71.1491977023646,1,A
1781598754067,2932.4026283413323,-16514.5068522302,361.04926774074335,1,A
1781598754089,3044.5798284886155,-15526.483863326865,699.2660161188518,1,A
1781598754110,2900.351999727823,-15442.140437444872,1202.5647488243706,1,A
1781598754130,2800.193785310606,-16016.479004165103,1544.8078870641232,1,A
1781598754153,3673.5734150287394,-16626.964753406188,433.524285250338,1,A
1781598754175,3048.586157065304,-16309.672817945362,566.3951506845949,1,A
1781598754196,2559.814070709285,-16181.14950231566,747.5826944585816,1,A
1781598754219,2151.168555887039,-16321.721878785645,1109.957782006555,1,A
1781598754240,2479.687499175511,-16285.574696264792,276.4950806462162,1,A
1781598754261,3441.2063575807956,-16301.640110718505,-367.72729721684766,1,A
1781598754282,3329.0291574335124,-16293.60740349165,71.1491977023646,1,A
1781598754304,2784.168471003851,-15928.119224669683,707.3187958421402,1,A
1781598754326,2563.8203992859735,-15964.266407190536,626.7909986092571,1,A
1781598754347,3601.459500648343,-16209.263977609657,-9.378599530518379,1,A
1781598754369,3677.579743605428,-16410.081658281066,22.832519362634812,1,A
1781598754391,3244.89625732305,-16000.413589711392,377.15482718731994,1,A
1781598754412,3252.9089144764275,-15980.33182164425,365.0756576023875,1,A
1781598754433,3417.1683861206634,-16181.14950231566,224.15201244484226,1,A
1781598754455,3313.0038431267576,-16032.544418618816,357.02287787909916,1,A
1781598754476,3020.5418570284837,-15827.71038433398,465.73540414349117,1,A
1781598754498,3236.8836001696727,-16157.05138063509,590.5534898544598,1,A
1781598754520,3028.554514181861,-16012.462650551675,650.9493377791221,1,A
1781598754541,3377.1051003537764,-16024.51171139196,429.49789538869385,1,A
1781598754563,3365.0861146237103,-16518.523205843627,312.7325894010135,1,A
1781598754584,3601.459500648343,-16711.30817928818,-101.9855663483338,1,A
1781598754606,3357.0734574703333,-15879.922981308546,139.59782535031513,1,A
1781598754628,3100.6684285622573,-15807.628616266838,344.94370829416675,1,A
1781598754649,111.94731035249815,-15650.990825343139,2503.0886741354307,1,A
1781598754670,4078.2126012742965,-16060.658893912814,187.9145036900449,1,A
1781598754692,3465.244329040928,-15847.79215240112,401.3131663571848,1,A
1781598754714,3264.927900206493,-15944.184639123396,542.23681151473,1,A
1781598754735,3100.6684285622573,-16064.675247526242,413.39233594211726,1,A
1781598754756,3236.8836001696727,-16233.362099290227,365.0756576023875,1,A
1781598754778,2675.9975994332567,-15434.107730218017,767.7146437668024,1,A
1781598754800,2439.624213408624,-15165.012038118328,828.1104916914646,1,A
1781598754822,3569.4088720348336,-15550.581985007433,51.017248394143856,1,A
1781598754843,3192.813985826097,-17000.485639455008,10.753349777702367,1,A
1781598754864,3625.497472108475,-17269.5813315547,-1.3258198072300804,1,A
1781598754886,3529.3455862679466,-16321.721878785645,-57.69527787024816,1,A
1781598754908,3765.718972292579,-15683.121654250564,-174.4605838579285,1,A
1781598754929,3629.5038006851637,-15253.371817613748,147.65060507360343,1,A
1781598754951,3168.776014365965,-15831.726737947407,489.8937433133561,1,A
1781598754973,3601.459500648343,-16791.63525155674,135.57143548867097,1,A
1781598754994,3381.111428930465,-16546.637681137625,46.99085853249971,1,A
1781598755016,2836.250742500804,-16020.495357778533,357.02287787909916,1,A
1781598755037,3036.5671713352385,-15646.97447172971,425.4715055270497,1,A
1781598755059,2768.1431566970964,-15976.315468030822,505.9993027599327,1,A
1781598755080,3329.0291574335124,-16434.179779961636,187.9145036900449,1,A
1781598755102,3613.478486378409,-16181.14950231566,433.524285250338,1,A
1781598755124,3148.7443714825213,-16221.313038449942,711.3451857037843,1,A
1781598755146,3012.5291998751063,-16169.100441475375,707.3187958421402,1,A
1781598755167,2527.763442095775,-16189.182209542516,453.65623455855877,1,A
1781598755188,3313.0038431267576,-15932.135578283112,63.0964179790763,1,A
1781598755210,3537.358243421324,-16004.42994332482,199.99367327497737,1,A
1781598755231,3825.813900942909,-15908.037456602542,232.20479216813055,1,A
1781598755253,3521.332929114569,-15723.285190384846,91.28114701058534,1,A
1781598755275,4162.345501384759,-15771.481433745985,-299.2786695688971,1,A
1781598755296,3453.2253433108617,-16124.920551727664,119.4658760420944,1,A
1781598755317,3144.738042905833,-15655.007178956566,328.8381488475901,1,A
1781598755339,3369.092443200399,-16040.577125845673,296.6270299544369,1,A
1781598755361,2844.2633996541813,-16586.801217271906,554.3159810996625,1,A
1781598755382,2667.9849422798793,-17116.959894244425,228.17840230648642,1,A
1781598755404,3088.649442832191,-16667.12828954047,131.54504562702684,1,A
1781598755425,2684.010256586634,-15988.364528871107,514.0520824832209,1,A
1781598755447,2655.965956549813,-16036.560772232246,650.9493377791221,1,A
1781598755469,2936.408956918021,-16281.558342651364,590.5534898544598,1,A
1781598755491,3361.079786047022,-16289.591049878221,252.3367414763513,1,A
1781598755512,3397.13674323722,-16020.495357778533,67.12280784072045,1,A
1781598755533,3132.719057175767,-16169.100441475375,473.7881838667795,1,A
1781598755555,3361.079786047022,-15875.906627695118,461.70901428184703,1,A
1781598755576,3357.0734574703333,-15895.988395762259,344.94370829416675,1,A
1781598755598,3805.7822580594657,-16149.018673408234,-9.378599530518379,1,A
1781598755619,3845.8455438263527,-15875.906627695118,-65.74805759353646,1,A
1781598755640,3701.61771506556,-15895.988395762259,123.49226590373854,1,A
1781598755662,3172.7823429426535,-16233.362099290227,538.2104216530859,1,A
1781598755684,3244.89625732305,-16470.326962482486,220.12562258319812,1,A
1781598755706,3417.1683861206634,-16165.084087861947,260.3895211996396,1,A
1781598755727,2984.4848998382854,-15948.200992736825,489.8937433133561,1,A
1781598755749,2936.408956918021,-16064.675247526242,361.04926774074335,1,A
1781598755770,2948.427942648087,-16309.672817945362,292.6006400927928,1,A
1781598755792,3469.2506576176165,-16153.035027021662,119.4658760420944,1,A
1781598755814,3184.8013286727196,-16040.577125845673,518.0784723448651,1,A
1781598755835,3152.75070005921,-16096.806076433668,505.9993027599327,1,A
1781598755856,3252.9089144764275,-16221.313038449942,292.6006400927928,1,A
1781598755878,3357.0734574703333,-16008.446296938248,71.1491977023646,1,A
1781598755900,3236.8836001696727,-16040.577125845673,316.7589792626577,1,A
1781598755920,3076.630457102125,-16104.838783660523,445.60345483527044,1,A
1781598755943,3208.839300132852,-16136.96961256795,336.89092857087843,1,A
1781598755965,3661.5544292986733,-16313.68917155879,95.30753687222949,1,A
1781598755986,3525.339257691258,-16293.60740349165,389.23399677225234,1,A
1781598756008,2940.4152854947097,-16096.806076433668,703.292405980496,1,A
1781598756029,2700.035570893389,-16096.806076433668,723.4243552887167,1,A
1781598756050,2988.491228414974,-16317.705525172218,232.20479216813055,1,A
1781598756073,3052.592485641993,-16241.394806517083,236.23118202977471,1,A
1781598756094,2880.3203568443796,-16060.658893912814,654.9757276407662,1,A
1781598756115,2623.9153279363036,-16136.96961256795,735.5035248736492,1,A
1781598756137,3164.769685789276,-16446.22884080192,175.83533410511248,1,A
1781598756159,3593.4468434949654,-16205.247623996229,-41.58971842367157,1,A
1781598756180,3140.7317143291443,-15980.33182164425,232.20479216813055,1,A
1781598756202,2876.314028267691,-16064.675247526242,473.7881838667795,1,A
1781598756223,3349.060800316956,-15887.955688535401,187.9145036900449,1,A
1781598756245,3709.6303722189373,-16108.855137273953,42.96446867085556,1,A
1781598756266,3561.396214881456,-16140.985966181377,119.4658760420944,1,A
1781598756288,3701.61771506556,-16149.018673408234,79.2019774256529,1,A
1781598756310,3092.65577140888,-16108.855137273953,320.78536912430184,1,A
1781598756331,3172.7823429426535,-15855.824859627975,296.6270299544369,1,A
1781598756352,3244.89625732305,-15940.168285509968,248.31035161470714,1,A
1781598756374,3188.8076572494083,-16582.78486365848,409.3659460804731,1,A
1781598756396,3317.0101717034463,-16169.100441475375,461.70901428184703,1,A
1781598756417,3280.953214513248,-15727.301543998274,562.3687608229508,1,A
1781598756439,3032.56084275855,-15984.348175257679,602.6326594393922,1,A
1781598756460,3625.497472108475,-16594.833924498762,220.12562258319812,1,A
1781598756482,3677.579743605428,-16213.280331223084,340.91731843252256,1,A
1781598756503,3325.0228288568237,-16024.51171139196,550.2895912380184,1,A
1781598756525,3136.7253857524556,-15807.628616266838,687.1868465339194,1,A
1781598756546,3300.9848573966915,-15948.200992736825,256.36313133799547,1,A
1781598756568,4018.117672623966,-16120.904198114236,139.59782535031513,1,A
1781598756589,3625.497472108475,-16361.885414919929,465.73540414349117,1,A
1781598756611,3389.1240860838425,-16032.544418618816,425.4715055270497,1,A
1781598756633,3148.7443714825213,-15767.465080132555,413.39233594211726,1,A
1781598756654,2860.288713960936,-16104.838783660523,586.5270999928157,1,A
1781598756676,3220.858285862918,-16381.96718298707,465.73540414349117,1,A
1781598756698,3272.9405573598706,-16193.198563155944,441.5770649736263,1,A
1781598756719,3248.902585899739,-16349.836354079644,292.6006400927928,1,A
1781598756741,3493.2886290777483,-16285.574696264792,373.12843732567575,1,A
1781598756763,2744.105185236964,-15859.841213241405,904.6118990627034,1,A
1781598756784,2231.2951274208126,-15835.743091560835,1218.670308270947,1,A
1781598756806,3252.9089144764275,-16145.002319794807,260.3895211996396,1,A
1781598756827,3933.9847725135037,-16361.885414919929,10.753349777702367,1,A
1781598756849,3469.2506576176165,-16140.985966181377,385.2076069106082,1,A
1781598756870,3349.060800316956,-15783.530494586268,715.3715755654284,1,A
1781598756892,3673.5734150287394,-15996.397236097962,610.6854391626806,1,A
1781598756913,3573.4152006115223,-16080.740661979955,115.43948618045023,1,A
1781598756935,4478.845458943165,-15823.694030720551,-214.72448247436998,1,A
1781598756957,3745.6873294091356,-15687.138007863992,373.12843732567575,1,A
1781598756979,3300.9848573966915,-16048.609833072529,936.8230179558566,1,A
1781598757000,3132.719057175767,-16000.413589711392,743.5563045969375,1,A
1781598757021,3921.9657867834376,-15960.250053577109,175.83533410511248,1,A
1781598757042,3901.934143899994,-16096.806076433668,131.54504562702684,1,A
1781598757065,3533.3519148446353,-15928.119224669683,489.8937433133561,1,A
1781598757086,3485.275971924371,-15912.053810215972,663.0285073640545,1,A
1781598757108,3413.1620575439747,-16012.462650551675,606.6590493010364,1,A
1781598757129,3789.7569437527113,-16193.198563155944,232.20479216813055,1,A
1781598757150,3725.655686525692,-16562.703095591336,272.46869078457206,1,A
1781598757172,3541.3645719980127,-16181.14950231566,457.6826244202029,1,A
1781598757194,3373.0987717770877,-16108.855137273953,667.0548972256986,1,A
1781598757216,3825.813900942909,-16189.182209542516,888.5063396161269,1,A
1781598757238,2936.408956918021,-16040.577125845673,1262.9605967490327,1,A
1781598757259,3605.4658292250315,-16249.427513743938,803.9521525215997,1,A
1781598757280,3829.820229519598,-16185.165855929088,348.9700981558109,1,A
1781598757302,3853.85820097973,-15900.004749375687,199.99367327497737,1,A
1781598757324,3501.3012862311257,-15683.121654250564,763.6882539051583,1,A
1781598757346,3493.2886290777483,-16008.446296938248,691.2132363955635,1,A
1781598757367,3060.6051427953703,-16381.96718298707,510.0256926215768,1,A
1781598757388,3733.6683436790695,-16269.50928181108,87.2547571489412,1,A
1781598757410,3685.592400758805,-16076.724308366527,111.41309631880608,1,A
1781598757431,3252.9089144764275,-15996.397236097962,461.70901428184703,1,A
1781598757454,3377.1051003537764,-16032.544418618816,405.33955621882893,1,A
1781598757474,3641.52278641523,-15891.97204214883,256.36313133799547,1,A
1781598757497,3597.453172071654,-16016.479004165103,473.7881838667795,1,A
1781598757517,3689.5987293354938,-16072.7079547531,610.6854391626806,1,A
1781598757539,3569.4088720348336,-16004.42994332482,683.1604566722752,1,A
1781598757561,3849.8518724030414,-16132.953258954522,461.70901428184703,1,A
1781598757582,3713.636700795626,-16104.838783660523,614.7118290243247,1,A
1781598757604,5007.680831066072,-16450.245194415347,264.41591106128374,1,A
1781598757626,3409.155728967286,-16064.675247526242,562.3687608229508,1,A
1781598757647,3793.7632723293996,-16233.362099290227,570.421540546239,1,A
1781598757669,3773.7316294459565,-16241.394806517083,292.6006400927928,1,A
1781598757690,3593.4468434949654,-16000.413589711392,453.65623455855877,1,A
1781598757712,3389.1240860838425,-16020.495357778533,626.7909986092571,1,A
1781598757734,3337.04181458689,-16132.953258954522,695.2396262572076,1,A
1781598757755,3593.4468434949654,-16124.920551727664,481.8409635900678,1,A
1781598757776,3669.5670864520507,-15972.299114417394,707.3187958421402,1,A
1781598757799,3681.586072182117,-16076.724308366527,659.0021175024103,1,A
1781598757819,3725.655686525692,-16084.757015593383,787.8465930750231,1,A
1781598757841,3693.6050579121825,-16012.462650551675,727.4507451503608,1,A
1781598757863,3625.497472108475,-15992.380882484535,562.3687608229508,1,A
1781598757884,3561.396214881456,-16100.822430047096,554.3159810996625,1,A
1781598757906,3565.402543458145,-15988.364528871107,489.8937433133561,1,A
1781598757927,3300.9848573966915,-15847.79215240112,534.1840317914417,1,A
1781598757950,3240.8899287463614,-15976.315468030822,437.5506751119822,1,A
1781598757971,3413.1620575439747,-16169.100441475375,316.7589792626577,1,A
1781598757992,3557.3898863047675,-16169.100441475375,292.6006400927928,1,A
1781598758014,3361.079786047022,-16068.69160113967,562.3687608229508,1,A
1781598758036,3645.5291149919185,-15988.364528871107,425.4715055270497,1,A
1781598758057,3801.775929482777,-16153.035027021662,409.3659460804731,1,A
1781598758079,3581.4278577648993,-16048.609833072529,538.2104216530859,1,A
1781598758100,3881.902501016551,-15875.906627695118,542.23681151473,1,A
1781598758122,3557.3898863047675,-15964.266407190536,856.2952207229737,1,A
1781598758144,3661.5544292986733,-15920.086517442827,791.8729829366672,1,A
1781598758165,3673.5734150287394,-15875.906627695118,622.764608747613,1,A
1781598758187,3389.1240860838425,-16161.06773424852,369.1020474640316,1,A
1781598758208,4546.953044746872,-16462.29425525563,-355.6481276319152,1,A
1781598758230,4470.8328017897875,-16112.87149088738,-101.9855663483338,1,A
1781598758251,3753.699986562513,-15859.841213241405,405.33955621882893,1,A
1781598758273,3573.4152006115223,-15835.743091560835,610.6854391626806,1,A
1781598758294,3765.718972292579,-16060.658893912814,554.3159810996625,1,A
1781598758316,3869.883515286485,-16136.96961256795,437.5506751119822,1,A
1781598758337,3881.902501016551,-16088.77336920681,296.6270299544369,1,A
1781598758359,3829.820229519598,-15783.530494586268,373.12843732567575,1,A
1781598758382,3805.7822580594657,-15799.595909039981,518.0784723448651,1,A
1781598758403,3709.6303722189373,-16068.69160113967,602.6326594393922,1,A
1781598758425,3777.737958022645,-16028.528065005388,638.8701681941895,1,A
1781598758447,3833.8265580962866,-15859.841213241405,401.3131663571848,1,A
1781598758468,3629.5038006851637,-16036.560772232246,433.524285250338,1,A
1781598758490,3449.219014734173,-16060.658893912814,155.70338479689173,1,A
1781598758511,3613.478486378409,-15968.282760803966,324.81175898594597,1,A
1781598758533,3381.111428930465,-16165.084087861947,687.1868465339194,1,A
1781598758554,3693.6050579121825,-16072.7079547531,260.3895211996396,1,A
1781598758576,4254.4910586485985,-16245.41116013051,38.93807880921141,1,A
1781598758598,3913.95312963006,-16341.803646852788,252.3367414763513,1,A
1781598758619,4022.1240012006547,-16068.69160113967,304.67980967772525,1,A
1781598758640,4026.1303297773434,-16084.757015593383,348.9700981558109,1,A
1781598758662,3853.85820097973,-15731.317897611701,457.6826244202029,1,A
1781598758684,3725.655686525692,-15675.088947023707,485.86735345171195,1,A
1781598758705,3817.801243789532,-15570.663753074574,417.4187258037614,1,A
1781598758727,4238.465744341844,-15711.23612954456,288.57425023114865,1,A
1781598758749,4166.351829961448,-15759.4323729057,127.51865576538269,1,A
1781598758770,4214.4277728817115,-15791.563201813125,159.7297746585359,1,A
1781598758791,3861.8708581331075,-15883.939334921974,373.12843732567575,1,A
1781598758813,3749.6936579858243,-15960.250053577109,348.9700981558109,1,A
1781598758835,4258.497387225288,-16253.443867357368,361.04926774074335,1,A
1781598758857,4162.345501384759,-16434.179779961636,505.9993027599327,1,A
1781598758878,4150.326515654693,-16028.528065005388,405.33955621882893,1,A
1781598758900,3769.725300869268,-15972.299114417394,248.31035161470714,1,A
1781598758921,4006.0986868939003,-16225.32939206337,127.51865576538269,1,A
1781598758943,3393.130414660531,-16321.721878785645,288.57425023114865,1,A
1781598758964,3429.1873718507295,-15791.563201813125,514.0520824832209,1,A
1781598758986,3569.4088720348336,-15920.086517442827,590.5534898544598,1,A
1781598759008,3353.0671288936446,-16442.21248718849,735.5035248736492,1,A
1781598759029,3565.402543458145,-15879.922981308546,425.4715055270497,1,A
1781598759051,3457.2316718875504,-15594.761874755144,449.6298446969146,1,A
1781598759072,3581.4278577648993,-16000.413589711392,634.8437783325454,1,A
1781598759093,3729.662015102381,-16634.997460633043,123.49226590373854,1,A
1781598759115,4058.180958390853,-16108.855137273953,-198.6189230277934,1,A
1781598759137,3669.5670864520507,-15944.184639123396,377.15482718731994,1,A
1781598759158,3489.2823005010596,-16341.803646852788,296.6270299544369,1,A
1781598759180,3781.744286599334,-16104.838783660523,22.832519362634812,1,A
1781598759202,3853.85820097973,-15895.988395762259,111.41309631880608,1,A
1781598759223,3561.396214881456,-15763.448726519127,546.2632013763741,1,A
1781598759245,3557.3898863047675,-16040.577125845673,554.3159810996625,1,A
1781598759266,4042.155644084098,-16016.479004165103,252.3367414763513,1,A
1781598759288,3946.00375824357,-15992.380882484535,75.17558756400875,1,A
1781598759309,3946.00375824357,-15968.282760803966,216.09923272155396,1,A
1781598759331,3901.934143899994,-16076.724308366527,167.78255438182418,1,A
1781598759352,3789.7569437527113,-16088.77336920681,373.12843732567575,1,A
1781598759374,3513.320271961192,-15964.266407190536,546.2632013763741,1,A
1781598759396,3577.4215291882106,-16181.14950231566,437.5506751119822,1,A
1781598759417,4102.250572734429,-16410.081658281066,260.3895211996396,1,A
1781598759439,4198.402458574957,-15916.0701638294,-174.4605838579285,1,A
1781598759461,3833.8265580962866,-15650.990825343139,340.91731843252256,1,A
1781598759482,3449.219014734173,-16112.87149088738,731.4771350120051,1,A
1781598759503,3697.611386488871,-16414.098011894494,300.6534198160811,1,A
1781598759525,4090.2315870043626,-16068.69160113967,18.806129500990664,1,A
1781598759547,3817.801243789532,-15719.268836771418,324.81175898594597,1,A
1781598759568,3288.9658716666254,-16140.985966181377,779.7938133517348,1,A
1781598759589,3665.560757875362,-16112.87149088738,393.26038663389653,1,A
1781598759611,3901.934143899994,-15743.366958451987,328.8381488475901,1,A
1781598759633,3641.52278641523,-15743.366958451987,389.23399677225234,1,A
1781598759654,3661.5544292986733,-16193.198563155944,352.996488017455,1,A
1781598759676,3661.5544292986733,-16241.394806517083,155.70338479689173,1,A
1781598759698,3645.5291149919185,-16056.642540299386,55.043638255788004,1,A
1781598759719,3525.339257691258,-16024.51171139196,224.15201244484226,1,A
1781598759740,3677.579743605428,-16265.492928197651,147.65060507360343,1,A
1781598759762,3765.718972292579,-15928.119224669683,127.51865576538269,1,A
1781598759784,3773.7316294459565,-15867.87392046826,171.80894424346832,1,A
1781598759805,3801.775929482777,-15948.200992736825,405.33955621882893,1,A
1781598759827,3958.022743973636,-16084.757015593383,159.7297746585359,1,A
1781598759848,4150.326515654693,-16365.901768533357,220.12562258319812,1,A
1781598759870,3769.725300869268,-15976.315468030822,473.7881838667795,1,A
1781598759891,3677.579743605428,-15743.366958451987,397.28677649554066,1,A
1781598759913,3693.6050579121825,-16181.14950231566,514.0520824832209,1,A
1781598759935,3865.877186709796,-16249.427513743938,336.89092857087843,1,A
1781598759957,3757.7063151392017,-16004.42994332482,272.46869078457206,1,A
1781598759978,3677.579743605428,-15747.383312065414,296.6270299544369,1,A
1781598759999,3901.934143899994,-15912.053810215972,220.12562258319812,1,A
1781598760021,3990.0733725871455,-15964.266407190536,-13.404989392162527,1,A
1781598760043,3946.00375824357,-15707.219775931133,127.51865576538269,1,A
1781598760064,3729.662015102381,-15908.037456602542,244.283961753063,1,A
1781598760086,3877.8961724398623,-16233.362099290227,191.94089355168907,1,A
1781598760107,3837.8328866729753,-16092.78972282024,397.28677649554066,1,A
1781598760129,3585.434186341588,-16060.658893912814,449.6298446969146,1,A
1781598760150,3765.718972292579,-16056.642540299386,268.44230092292787,1,A
1781598760172,3757.7063151392017,-16092.78972282024,518.0784723448651,1,A
1781598760194,3585.434186341588,-16136.96961256795,489.8937433133561,1,A
1781598760215,3653.541772145296,-16064.675247526242,457.6826244202029,1,A
1781598760237,3661.5544292986733,-16092.78972282024,405.33955621882893,1,A
1781598760259,3661.5544292986733,-16120.904198114236,244.283961753063,1,A
1781598760279,3697.611386488871,-15803.61226265341,119.4658760420944,1,A
1781598760300,3569.4088720348336,-15819.677677107122,147.65060507360343,1,A
1781598760323,3837.8328866729753,-16076.724308366527,83.22836728729705,1,A
1781598760345,4062.1872869675417,-16173.116795088803,95.30753687222949,1,A
1781598760365,3954.016415396947,-15920.086517442827,-9.378599530518379,1,A
1781598760388,3805.7822580594657,-15936.15193189654,131.54504562702684,1,A
1781598760409,3685.592400758805,-15956.233699963681,147.65060507360343,1,A
1781598760430,3745.6873294091356,-15988.364528871107,175.83533410511248,1,A
1781598760453,3933.9847725135037,-16052.626186685957,163.75616452018002,1,A
1781598760474,3909.9468010533715,-15992.380882484535,344.94370829416675,1,A
1781598760495,3817.801243789532,-16036.560772232246,405.33955621882893,1,A
1781598760518,3905.9404724766828,-15916.0701638294,316.7589792626577,1,A
1781598760538,3785.7506151760226,-15976.315468030822,381.1812170489641,1,A
1781598760560,3809.7885866361544,-16080.740661979955,252.3367414763513,1,A
1781598760581,3789.7569437527113,-16060.658893912814,179.8617239667566,1,A
1781598760603,3941.997429666881,-15699.187068704277,220.12562258319812,1,A
1781598760625,3917.959458206749,-15924.102871056255,159.7297746585359,1,A
1781598760646,3941.997429666881,-16080.740661979955,55.043638255788004,1,A
1781598760667,3921.9657867834376,-16325.738232399075,59.07002811743215,1,A
1781598760689,3897.927815323306,-15932.135578283112,123.49226590373854,1,A
1781598760711,3685.592400758805,-15976.315468030822,393.26038663389653,1,A
1781598760732,3497.294957654437,-16161.06773424852,497.9465230366444,1,A
1781598760754,3649.535443568607,-16193.198563155944,373.12843732567575,1,A
1781598760775,3733.6683436790695,-16132.953258954522,373.12843732567575,1,A
1781598760797,3453.2253433108617,-16016.479004165103,526.1312520681535,1,A
1781598760818,3300.9848573966915,-16016.479004165103,187.9145036900449,1,A
1781598760841,4158.3391728080705,-16088.77336920681,-254.98838109081146,1,A
1781598760862,3761.7126437158904,-15972.299114417394,220.12562258319812,1,A
1781598760883,3529.3455862679466,-15875.906627695118,489.8937433133561,1,A
1781598760905,3713.636700795626,-15887.955688535401,260.3895211996396,1,A
1781598760926,3677.579743605428,-16245.41116013051,67.12280784072045,1,A
1781598760948,4010.1050154705886,-16229.345745676797,-170.43419399628434,1,A
1781598760970,3829.820229519598,-15843.775798787692,-89.90639676340136,1,A
1781598760991,3813.794915212843,-15815.661323493694,107.38670645716194,1,A
1781598761013,3753.699986562513,-16012.462650551675,139.59782535031513,1,A
1781598761034,3897.927815323306,-16084.757015593383,155.70338479689173,1,A
1781598761056,3745.6873294091356,-15972.299114417394,501.97291289828854,1,A
1781598761077,3701.61771506556,-16088.77336920681,469.76179400513536,1,A
1781598761099,3849.8518724030414,-15944.184639123396,381.1812170489641,1,A
1781598761121,4222.440430035089,-16084.757015593383,38.93807880921141,1,A
1781598761142,4146.320187078004,-15916.0701638294,107.38670645716194,1,A
1781598761163,4042.155644084098,-15996.397236097962,147.65060507360343,1,A
1781598761186,3881.902501016551,-15972.299114417394,18.806129500990664,1,A
1781598761206,3990.0733725871455,-15803.61226265341,-69.7744474551806,1,A
1781598761228,3849.8518724030414,-15968.282760803966,99.33392673387364,1,A
1781598761249,3561.396214881456,-15996.397236097962,292.6006400927928,1,A
1781598761271,3805.7822580594657,-16124.920551727664,159.7297746585359,1,A
1781598761293,3994.079701163834,-16213.280331223084,46.99085853249971,1,A
1781598761314,3753.699986562513,-16080.740661979955,340.91731843252256,1,A
1781598761336,3361.079786047022,-15976.315468030822,417.4187258037614,1,A
1781598761358,3809.7885866361544,-16140.985966181377,348.9700981558109,1,A
1781598761379,3785.7506151760226,-16145.002319794807,272.46869078457206,1,A
1781598761401,3797.7696009060883,-15976.315468030822,300.6534198160811,1,A
1781598761422,3641.52278641523,-15747.383312065414,312.7325894010135,1,A
1781598761444,3869.883515286485,-15940.168285509968,248.31035161470714,1,A
1781598761465,3998.086029740523,-16149.018673408234,103.36031659551779,1,A
1781598761486,3765.718972292579,-16072.7079547531,228.17840230648642,1,A
1781598761508,3709.6303722189373,-15928.119224669683,292.6006400927928,1,A
1781598761530,4118.2758870411835,-16337.787293239358,-53.668888008604014,1,A
1781598761551,4022.1240012006547,-16072.7079547531,-89.90639676340136,1,A
1781598761573,3913.95312963006,-15775.497787359413,79.2019774256529,1,A
1781598761595,3689.5987293354938,-15900.004749375687,212.0728428599098,1,A
1781598761616,3577.4215291882106,-16028.528065005388,405.33955621882893,1,A
1781598761638,3885.9088295932397,-16028.528065005388,159.7297746585359,1,A
1781598761659,4002.0923583172116,-16092.78972282024,143.62421521195927,1,A
1781598761681,3889.9151581699284,-15875.906627695118,272.46869078457206,1,A
1781598761702,3869.883515286485,-15803.61226265341,183.88811382840078,1,A
1781598761724,4078.2126012742965,-16177.13314870223,143.62421521195927,1,A
1781598761746,4030.136658354032,-16257.460220970795,111.41309631880608,1,A
1781598761767,4002.0923583172116,-15827.71038433398,179.8617239667566,1,A
1781598761788,3805.7822580594657,-15747.383312065414,292.6006400927928,1,A
1781598761810,3741.681000832447,-15908.037456602542,220.12562258319812,1,A
1781598761832,4194.396129998268,-16185.165855929088,175.83533410511248,1,A
1781598761853,4166.351829961448,-15924.102871056255,14.779739639346515,1,A
1781598761875,3833.8265580962866,-15803.61226265341,381.1812170489641,1,A
1781598761897,3781.744286599334,-16116.887844500809,417.4187258037614,1,A
1781598761918,3881.902501016551,-16193.198563155944,212.0728428599098,1,A
1781598761940,3901.934143899994,-16048.609833072529,79.2019774256529,1,A
1781598761960,3717.6430293723147,-15904.021102989114,409.3659460804731,1,A
1781598761983,3525.339257691258,-15924.102871056255,634.8437783325454,1,A
1781598762004,3881.902501016551,-16024.51171139196,256.36313133799547,1,A
1781598762026,3982.060715433768,-15988.364528871107,-41.58971842367157,1,A
1781598762047,3990.0733725871455,-15992.380882484535,83.22836728729705,1,A
1781598762069,3773.7316294459565,-16020.495357778533,240.25757189141885,1,A
1781598762091,3733.6683436790695,-16056.642540299386,232.20479216813055,1,A
1781598762112,3837.8328866729753,-15976.315468030822,204.0200631366215,1,A
1781598762133,3946.00375824357,-15908.037456602542,75.17558756400875,1,A
1781598762155,3893.921486746617,-15924.102871056255,155.70338479689173,1,A
1781598762176,3946.00375824357,-15992.380882484535,107.38670645716194,1,A
1781598762198,4026.1303297773434,-16088.77336920681,147.65060507360343,1,A
1781598762220,3982.060715433768,-15835.743091560835,208.04645299826566,1,A
1781598762241,3893.921486746617,-15859.841213241405,437.5506751119822,1,A
1781598762264,3998.086029740523,-16080.740661979955,167.78255438182418,1,A
1781598762284,4134.301201347938,-16120.904198114236,139.59782535031513,1,A
1781598762306,3897.927815323306,-15984.348175257679,151.6769949352476,1,A
1781598762327,3777.737958022645,-15791.563201813125,304.67980967772525,1,A
1781598762349,3809.7885866361544,-16088.77336920681,167.78255438182418,1,A
1781598762371,4142.313858501316,-16104.838783660523,46.99085853249971,1,A
1781598762392,3946.00375824357,-16008.446296938248,204.0200631366215,1,A
1781598762414,3869.883515286485,-15719.268836771418,216.09923272155396,1,A
1781598762436,3897.927815323306,-16124.920551727664,361.04926774074335,1,A
1781598762457,4070.199944120919,-16052.626186685957,143.62421521195927,1,A
1781598762479,3941.997429666881,-15626.89270366257,248.31035161470714,1,A
1781598762500,3765.718972292579,-15984.348175257679,381.1812170489641,1,A
1781598762522,3829.820229519598,-16201.231270382801,264.41591106128374,1,A
1781598762543,3757.7063151392017,-16165.084087861947,268.44230092292787,1,A
1781598762565,3853.85820097973,-15980.33182164425,183.88811382840078,1,A
1781598762586,3777.737958022645,-15895.988395762259,425.4715055270497,1,A
1781598762608,3865.877186709796,-16008.446296938248,352.996488017455,1,A
1781598762629,3841.839215249664,-16193.198563155944,300.6534198160811,1,A
1781598762651,3825.813900942909,-15968.282760803966,276.4950806462162,1,A
1781598762672,3733.6683436790695,-15851.808506014548,280.52147050786033,1,A
1781598762694,3845.8455438263527,-15924.102871056255,208.04645299826566,1,A
1781598762715,3990.0733725871455,-16197.214916769373,212.0728428599098,1,A
1781598762737,4010.1050154705886,-15960.250053577109,18.806129500990664,1,A
1781598762759,3974.0480582803907,-15867.87392046826,195.9672834133332,1,A
1781598762781,3825.813900942909,-15992.380882484535,292.6006400927928,1,A
1781598762802,3777.737958022645,-16060.658893912814,212.0728428599098,1,A
1781598762824,3921.9657867834376,-16080.740661979955,55.043638255788004,1,A
1781598762845,3837.8328866729753,-16012.462650551675,252.3367414763513,1,A
1781598762867,3773.7316294459565,-15875.906627695118,179.8617239667566,1,A
1781598762888,3705.6240436422486,-16016.479004165103,284.5478603695045,1,A
1781598762910,3813.794915212843,-16092.78972282024,216.09923272155396,1,A
1781598762931,3909.9468010533715,-16032.544418618816,115.43948618045023,1,A
1781598762953,3865.877186709796,-15976.315468030822,175.83533410511248,1,A
1781598762974,3725.655686525692,-16016.479004165103,352.996488017455,1,A
1781598762996,3970.041729703702,-16104.838783660523,256.36313133799547,1,A
1781598763017,3982.060715433768,-15988.364528871107,204.0200631366215,1,A
1781598763039,3998.086029740523,-15916.0701638294,216.09923272155396,1,A
1781598763061,3998.086029740523,-15960.250053577109,252.3367414763513,1,A
1781598763082,3773.7316294459565,-16004.42994332482,421.4451156654056,1,A
1781598763103,3885.9088295932397,-16128.936905341094,344.94370829416675,1,A
1781598763125,3825.813900942909,-16096.806076433668,445.60345483527044,1,A
1781598763146,3781.744286599334,-15972.299114417394,457.6826244202029,1,A
1781598763168,3637.516457838541,-15948.200992736825,453.65623455855877,1,A
1781598763190,3573.4152006115223,-15932.135578283112,381.1812170489641,1,A
1781598763211,3669.5670864520507,-16088.77336920681,316.7589792626577,1,A
1781598763233,3773.7316294459565,-15960.250053577109,163.75616452018002,1,A
1781598763254,3601.459500648343,-16020.495357778533,264.41591106128374,1,A
1781598763276,3617.4848149550976,-16088.77336920681,284.5478603695045,1,A
1781598763298,3685.592400758805,-16140.985966181377,163.75616452018002,1,A
1781598763319,3705.6240436422486,-16040.577125845673,204.0200631366215,1,A
1781598763341,3581.4278577648993,-15875.906627695118,373.12843732567575,1,A
1781598763362,3693.6050579121825,-16064.675247526242,103.36031659551779,1,A
1781598763384,3865.877186709796,-16249.427513743938,151.6769949352476,1,A
1781598763405,3954.016415396947,-16052.626186685957,-53.668888008604014,1,A
1781598763427,4082.218929850985,-15831.726737947407,115.43948618045023,1,A
1781598763449,3641.52278641523,-15940.168285509968,340.91731843252256,1,A
1781598763469,3917.959458206749,-16032.544418618816,224.15201244484226,1,A
1781598763492,3765.718972292579,-16092.78972282024,195.9672834133332,1,A
1781598763514,3809.7885866361544,-16080.740661979955,352.996488017455,1,A
1781598763534,3877.8961724398623,-15851.808506014548,232.20479216813055,1,A
1781598763556,3817.801243789532,-16024.51171139196,320.78536912430184,1,A
1781598763578,3925.9721153601263,-16060.658893912814,220.12562258319812,1,A
1781598763599,4014.1113440472773,-16068.69160113967,340.91731843252256,1,A
1781598763621,3677.579743605428,-15751.399665678844,409.3659460804731,1,A
1781598763642,3693.6050579121825,-15871.890274081688,401.3131663571848,1,A
1781598763664,3669.5670864520507,-16233.362099290227,385.2076069106082,1,A
1781598763685,4102.250572734429,-16128.936905341094,95.30753687222949,1,A
1781598763707,3749.6936579858243,-15855.824859627975,340.91731843252256,1,A
1781598763729,3361.079786047022,-15807.628616266838,501.97291289828854,1,A
1781598763750,3445.2126861574843,-15859.841213241405,477.8145737284236,1,A
1781598763772,3725.655686525692,-16233.362099290227,147.65060507360343,1,A
1781598763794,3757.7063151392017,-16265.492928197651,216.09923272155396,1,A
1781598763815,3485.275971924371,-16000.413589711392,316.7589792626577,1,A
1781598763836,3601.459500648343,-15851.808506014548,268.44230092292787,1,A
1781598763858,3589.4405149182767,-16116.887844500809,212.0728428599098,1,A
1781598763879,3773.7316294459565,-16052.626186685957,151.6769949352476,1,A
1781598763901,3857.864529556419,-16016.479004165103,107.38670645716194,1,A
1781598763922,3761.7126437158904,-15928.119224669683,191.94089355168907,1,A
1781598763945,3865.877186709796,-16000.413589711392,175.83533410511248,1,A
1781598763966,4090.2315870043626,-16060.658893912814,220.12562258319812,1,A
1781598763987,3709.6303722189373,-16140.985966181377,493.9201331750002,1,A
1781598764009,3713.636700795626,-16060.658893912814,300.6534198160811,1,A
1781598764031,3865.877186709796,-16080.740661979955,191.94089355168907,1,A
1781598764052,3809.7885866361544,-16036.560772232246,308.7061995393694,1,A
1781598764074,3609.47215780172,-15867.87392046826,357.02287787909916,1,A
1781598764096,3605.4658292250315,-16132.953258954522,276.4950806462162,1,A
1781598764117,3909.9468010533715,-15968.282760803966,22.832519362634812,1,A
1781598764138,3873.8898438631736,-15815.661323493694,216.09923272155396,1,A
1781598764160,3801.775929482777,-15940.168285509968,296.6270299544369,1,A
1781598764182,4026.1303297773434,-16140.985966181377,328.8381488475901,1,A
1781598764204,3905.9404724766828,-16161.06773424852,240.25757189141885,1,A
1781598764224,3917.959458206749,-15887.955688535401,280.52147050786033,1,A
1781598764246,3585.434186341588,-15851.808506014548,377.15482718731994,1,A
1781598764268,3529.3455862679466,-16032.544418618816,461.70901428184703,1,A
1781598764289,3697.611386488871,-16132.953258954522,147.65060507360343,1,A
1781598764311,3905.9404724766828,-16389.999890213927,199.99367327497737,1,A
1781598764332,3549.37722915139,-15984.348175257679,602.6326594393922,1,A
1781598764355,3525.339257691258,-15851.808506014548,437.5506751119822,1,A
1781598764378,3549.37722915139,-16261.476574584223,377.15482718731994,1,A
1781598764399,3833.8265580962866,-16000.413589711392,260.3895211996396,1,A
1781598764420,3813.794915212843,-16044.593479459101,171.80894424346832,1,A
1781598764441,3853.85820097973,-16032.544418618816,248.31035161470714,1,A
1781598764463,3773.7316294459565,-16116.887844500809,344.94370829416675,1,A
1781598764485,3841.839215249664,-15920.086517442827,373.12843732567575,1,A
1781598764506,3761.7126437158904,-15936.15193189654,216.09923272155396,1,A
1781598764529,3841.839215249664,-15887.955688535401,175.83533410511248,1,A
1781598764549,3994.079701163834,-15908.037456602542,199.99367327497737,1,A
1781598764570,3853.85820097973,-16000.413589711392,304.67980967772525,1,A
1781598764592,3817.801243789532,-16285.574696264792,352.996488017455,1,A
1781598764614,3817.801243789532,-16088.77336920681,151.6769949352476,1,A
1781598764636,3757.7063151392017,-15871.890274081688,232.20479216813055,1,A
1781598764657,3605.4658292250315,-15863.857566854833,316.7589792626577,1,A
1781598764679,3589.4405149182767,-16140.985966181377,361.04926774074335,1,A
1781598764700,3705.6240436422486,-16189.182209542516,316.7589792626577,1,A
1781598764722,3849.8518724030414,-16072.7079547531,224.15201244484226,1,A
1781598764743,3689.5987293354938,-15835.743091560835,348.9700981558109,1,A
1781598764765,3721.6493579490034,-15900.004749375687,437.5506751119822,1,A
1781598764786,4018.117672623966,-16120.904198114236,171.80894424346832,1,A
1781598764808,4054.1746298141643,-16092.78972282024,163.75616452018002,1,A
1781598764829,4006.0986868939003,-15952.217346350253,280.52147050786033,1,A
1781598764850,3645.5291149919185,-16016.479004165103,530.1576419297976,1,A
1781598764873,3649.535443568607,-16213.280331223084,481.8409635900678,1,A
1781598764895,3757.7063151392017,-16209.263977609657,244.283961753063,1,A
1781598764916,3525.339257691258,-15787.546848199698,369.1020474640316,1,A
1781598764937,3429.1873718507295,-15900.004749375687,663.0285073640545,1,A
1781598764959,3505.3076148078144,-16140.985966181377,381.1812170489641,1,A
1781598764981,3853.85820097973,-16116.887844500809,280.52147050786033,1,A
1781598765002,3877.8961724398623,-16004.42994332482,212.0728428599098,1,A
1781598765023,3453.2253433108617,-15924.102871056255,336.89092857087843,1,A
1781598765045,3613.478486378409,-16052.626186685957,324.81175898594597,1,A
1781598765067,3809.7885866361544,-16120.904198114236,135.57143548867097,1,A
1781598765088,3917.959458206749,-15863.857566854833,320.78536912430184,1,A
1781598765111,3605.4658292250315,-15956.233699963681,377.15482718731994,1,A
1781598765132,4010.1050154705886,-16120.904198114236,75.17558756400875,1,A
1781598765153,3913.95312963006,-15863.857566854833,328.8381488475901,1,A
1781598765175,3661.5544292986733,-15855.824859627975,510.0256926215768,1,A
1781598765196,3797.7696009060883,-15932.135578283112,393.26038663389653,1,A
1781598765218,4054.1746298141643,-16201.231270382801,232.20479216813055,1,A
1781598765239,3978.0543868570794,-16008.446296938248,373.12843732567575,1,A
1781598765260,3693.6050579121825,-15867.87392046826,445.60345483527044,1,A
1781598765282,3805.7822580594657,-16112.87149088738,288.57425023114865,1,A
1781598765304,3998.086029740523,-16016.479004165103,175.83533410511248,1,A
1781598765325,3873.8898438631736,-15948.200992736825,252.3367414763513,1,A
1781598765347,3825.813900942909,-15968.282760803966,373.12843732567575,1,A
1781598765369,4138.307529924627,-15976.315468030822,163.75616452018002,1,A
1781598765391,4030.136658354032,-15920.086517442827,268.44230092292787,1,A
1781598765412,3994.079701163834,-15887.955688535401,385.2076069106082,1,A
1781598765433,3705.6240436422486,-16153.035027021662,501.97291289828854,1,A
1781598765455,3849.8518724030414,-16028.528065005388,393.26038663389653,1,A
1781598765476,3777.737958022645,-15839.759445174264,312.7325894010135,1,A
1781598765498,3773.7316294459565,-16096.806076433668,445.60345483527044,1,A
1781598765520,3925.9721153601263,-16104.838783660523,534.1840317914417,1,A
1781598765541,3829.820229519598,-16008.446296938248,457.6826244202029,1,A
1781598765563,3833.8265580962866,-16020.495357778533,393.26038663389653,1,A
1781598765585,3809.7885866361544,-15936.15193189654,288.57425023114865,1,A
1781598765606,3841.839215249664,-16060.658893912814,272.46869078457206,1,A
1781598765627,3769.725300869268,-16104.838783660523,232.20479216813055,1,A
1781598765648,3769.725300869268,-15976.315468030822,159.7297746585359,1,A
1781598765671,3901.934143899994,-16032.544418618816,155.70338479689173,1,A
1781598765693,3889.9151581699284,-15932.135578283112,248.31035161470714,1,A
1781598765713,3837.8328866729753,-16032.544418618816,369.1020474640316,1,A
1781598765735,3970.041729703702,-16004.42994332482,179.8617239667566,1,A
1781598765757,3889.9151581699284,-16032.544418618816,139.59782535031513,1,A
1781598765778,3901.934143899994,-16088.77336920681,292.6006400927928,1,A
1781598765800,3841.839215249664,-15904.021102989114,300.6534198160811,1,A
1781598765820,3857.864529556419,-15851.808506014548,135.57143548867097,1,A
1781598765843,3801.775929482777,-16060.658893912814,199.99367327497737,1,A
1781598765865,4014.1113440472773,-16100.822430047096,199.99367327497737,1,A
1781598765886,3865.877186709796,-16068.69160113967,336.89092857087843,1,A
1781598765907,3753.699986562513,-16032.544418618816,332.8645387092343,1,A
1781598765929,3925.9721153601263,-15988.364528871107,228.17840230648642,1,A
1781598765950,3982.060715433768,-16036.560772232246,187.9145036900449,1,A
1781598765973,4014.1113440472773,-16080.740661979955,389.23399677225234,1,A
1781598765994,3994.079701163834,-16100.822430047096,292.6006400927928,1,A
1781598766016,4002.0923583172116,-15847.79215240112,425.4715055270497,1,A
1781598766037,3937.9911010901924,-15980.33182164425,308.7061995393694,1,A
1781598766059,3954.016415396947,-16213.280331223084,425.4715055270497,1,A
1781598766080,3869.883515286485,-15879.922981308546,485.86735345171195,1,A
1781598766102,3765.718972292579,-15719.268836771418,385.2076069106082,1,A
1781598766123,3921.9657867834376,-16096.806076433668,139.59782535031513,1,A
1781598766145,3877.8961724398623,-16040.577125845673,38.93807880921141,1,A
1781598766166,3681.586072182117,-15904.021102989114,135.57143548867097,1,A
1781598766188,3501.3012862311257,-16116.887844500809,328.8381488475901,1,A
1781598766210,3457.2316718875504,-16157.05138063509,352.996488017455,1,A
1781598766231,3789.7569437527113,-16084.757015593383,155.70338479689173,1,A
1781598766252,3801.775929482777,-15952.217346350253,46.99085853249971,1,A
1781598766274,3865.877186709796,-15932.135578283112,361.04926774074335,1,A
1781598766295,3913.95312963006,-15928.119224669683,417.4187258037614,1,A
1781598766317,3962.0290725503246,-16149.018673408234,389.23399677225234,1,A
1781598766339,4058.180958390853,-16052.626186685957,361.04926774074335,1,A
1781598766361,3877.8961724398623,-15803.61226265341,365.0756576023875,1,A
1781598766382,3857.864529556419,-15875.906627695118,260.3895211996396,1,A
1781598766403,3986.067044010457,-16205.247623996229,320.78536912430184,1,A
1781598766425,4074.206272697608,-16092.78972282024,240.25757189141885,1,A
1781598766446,4006.0986868939003,-15807.628616266838,393.26038663389653,1,A
1781598766467,3833.8265580962866,-15952.217346350253,413.39233594211726,1,A
1781598766489,3833.8265580962866,-16076.724308366527,296.6270299544369,1,A
1781598766510,3954.016415396947,-16112.87149088738,268.44230092292787,1,A
1781598766533,3773.7316294459565,-16000.413589711392,385.2076069106082,1,A
1781598766554,3617.4848149550976,-15972.299114417394,514.0520824832209,1,A
1781598766576,3753.699986562513,-15875.906627695118,405.33955621882893,1,A
1781598766597,3861.8708581331075,-16120.904198114236,292.6006400927928,1,A
1781598766618,3857.864529556419,-16004.42994332482,332.8645387092343,1,A
1781598766640,3613.478486378409,-15835.743091560835,393.26038663389653,1,A
1781598766662,3613.478486378409,-15851.808506014548,304.67980967772525,1,A
1781598766683,3693.6050579121825,-16020.495357778533,264.41591106128374,1,A
1781598766705,3649.535443568607,-16120.904198114236,163.75616452018002,1,A
1781598766726,3589.4405149182767,-16068.69160113967,220.12562258319812,1,A
1781598766748,3633.5101292618524,-16128.936905341094,300.6534198160811,1,A
1781598766770,3541.3645719980127,-15960.250053577109,332.8645387092343,1,A
1781598766792,3745.6873294091356,-16201.231270382801,216.09923272155396,1,A
1781598766813,3937.9911010901924,-16080.740661979955,264.41591106128374,1,A
1781598766835,3785.7506151760226,-15875.906627695118,409.3659460804731,1,A
1781598766857,3893.921486746617,-15908.037456602542,272.46869078457206,1,A
1781598766877,4090.2315870043626,-16225.32939206337,208.04645299826566,1,A
1781598766899,3937.9911010901924,-16068.69160113967,369.1020474640316,1,A
1781598766921,3833.8265580962866,-15630.909057275998,497.9465230366444,1,A
1781598766942,3845.8455438263527,-15960.250053577109,300.6534198160811,1,A
1781598766964,4258.497387225288,-16128.936905341094,6.726959916058218,1,A
1781598766986,4054.1746298141643,-16016.479004165103,46.99085853249971,1,A
1781598767007,4038.1493155074095,-15952.217346350253,260.3895211996396,1,A
1781598767028,3837.8328866729753,-15996.397236097962,405.33955621882893,1,A
1781598767050,4002.0923583172116,-16052.626186685957,288.57425023114865,1,A
1781598767072,3990.0733725871455,-16032.544418618816,256.36313133799547,1,A
1781598767093,3974.0480582803907,-16016.479004165103,340.91731843252256,1,A
1781598767115,3941.997429666881,-16004.42994332482,421.4451156654056,1,A
1781598767137,3970.041729703702,-16072.7079547531,453.65623455855877,1,A
1781598767158,3857.864529556419,-15948.200992736825,344.94370829416675,1,A
1781598767179,3781.744286599334,-15912.053810215972,497.9465230366444,1,A
1781598767200,3737.674672255758,-15996.397236097962,361.04926774074335,1,A
1781598767223,3805.7822580594657,-16028.528065005388,300.6534198160811,1,A
1781598767244,3741.681000832447,-16060.658893912814,332.8645387092343,1,A
1781598767265,3641.52278641523,-15843.775798787692,244.283961753063,1,A
1781598767287,3773.7316294459565,-16084.757015593383,216.09923272155396,1,A
1781598767309,3745.6873294091356,-16217.296684836514,256.36313133799547,1,A
1781598767330,3865.877186709796,-16181.14950231566,123.49226590373854,1,A
1781598767352,3777.737958022645,-15980.33182164425,216.09923272155396,1,A
1781598767373,3777.737958022645,-15851.808506014548,316.7589792626577,1,A
1781598767395,3929.978443936815,-16092.78972282024,332.8645387092343,1,A
1781598767417,4158.3391728080705,-16068.69160113967,199.99367327497737,1,A
1781598767438,4218.434101458401,-15976.315468030822,107.38670645716194,1,A
1781598767460,3982.060715433768,-15835.743091560835,240.25757189141885,1,A
1781598767482,3982.060715433768,-16008.446296938248,381.1812170489641,1,A
1781598767503,4074.206272697608,-16072.7079547531,199.99367327497737,1,A
1781598767524,3974.0480582803907,-15988.364528871107,288.57425023114865,1,A
1781598767546,3966.0354011270133,-15920.086517442827,183.88811382840078,1,A
1781598767568,3994.079701163834,-16044.593479459101,308.7061995393694,1,A
1781598767590,4034.142986930721,-15952.217346350253,316.7589792626577,1,A
1781598767610,3962.0290725503246,-16060.658893912814,268.44230092292787,1,A
1781598767632,4002.0923583172116,-15988.364528871107,252.3367414763513,1,A
1781598767654,4022.1240012006547,-16072.7079547531,409.3659460804731,1,A
1781598767675,3913.95312963006,-15996.397236097962,405.33955621882893,1,A
1781598767697,3998.086029740523,-16032.544418618816,344.94370829416675,1,A
1781598767718,4062.1872869675417,-16161.06773424852,401.3131663571848,1,A
1781598767740,3725.655686525692,-15936.15193189654,771.7410336284465,1,A
1781598767761,3473.256986194305,-15887.955688535401,747.5826944585816,1,A
1781598767783,3913.95312963006,-16249.427513743938,14.779739639346515,1,A
1781598767805,4206.415115728334,-16044.593479459101,-295.25227970725297,1,A
1781598767827,3597.453172071654,-15667.056239796852,71.1491977023646,1,A
1781598767848,3453.2253433108617,-15948.200992736825,240.25757189141885,1,A
1781598767870,3705.6240436422486,-16241.394806517083,171.80894424346832,1,A
1781598767891,3873.8898438631736,-16213.280331223084,46.99085853249971,1,A
1781598767913,3833.8265580962866,-15867.87392046826,111.41309631880608,1,A
1781598767934,3946.00375824357,-15887.955688535401,171.80894424346832,1,A
1781598767956,4102.250572734429,-15908.037456602542,95.30753687222949,1,A
1781598767977,4246.478401495221,-16120.904198114236,42.96446867085556,1,A
1781598767999,4014.1113440472773,-15920.086517442827,208.04645299826566,1,A
1781598768020,4142.313858501316,-15871.890274081688,280.52147050786033,1,A
1781598768042,3962.0290725503246,-15891.97204214883,409.3659460804731,1,A
1781598768064,4078.2126012742965,-16068.69160113967,240.25757189141885,1,A
1781598768085,4334.6176301823725,-15988.364528871107,127.51865576538269,1,A
1781598768107,4374.6809159492595,-15835.743091560835,256.36313133799547,1,A
1781598768128,4182.377144268202,-15863.857566854833,377.15482718731994,1,A
1781598768150,4126.288544194561,-16012.462650551675,284.5478603695045,1,A
1781598768171,4114.269558464494,-16008.446296938248,216.09923272155396,1,A
1781598768193,4170.358158538136,-15863.857566854833,220.12562258319812,1,A
1781598768214,4054.1746298141643,-15863.857566854833,405.33955621882893,1,A
1781598768236,4058.180958390853,-15879.922981308546,570.421540546239,1,A
1781598768257,4082.218929850985,-16096.806076433668,336.89092857087843,1,A
1781598768279,4110.263229887806,-16012.462650551675,224.15201244484226,1,A
1781598768301,3913.95312963006,-15916.0701638294,248.31035161470714,1,A
1781598768322,3809.7885866361544,-15883.939334921974,292.6006400927928,1,A
1781598768344,3793.7632723293996,-16040.577125845673,220.12562258319812,1,A
1781598768365,3921.9657867834376,-16036.560772232246,14.779739639346515,1,A
1781598768387,3885.9088295932397,-15960.250053577109,26.85890922427896,1,A
1781598768408,3809.7885866361544,-15992.380882484535,195.9672834133332,1,A
1781598768430,3821.8075723662205,-16072.7079547531,228.17840230648642,1,A
1781598768452,4022.1240012006547,-16048.609833072529,107.38670645716194,1,A
1781598768473,4082.218929850985,-16056.642540299386,79.2019774256529,1,A
1781598768495,4030.136658354032,-15867.87392046826,344.94370829416675,1,A
1781598768516,4082.218929850985,-15952.217346350253,240.25757189141885,1,A
1781598768538,4158.3391728080705,-15779.51414097284,284.5478603695045,1,A
1781598768559,4466.826473213099,-15843.775798787692,183.88811382840078,1,A
1781598768581,4278.529030108731,-16000.413589711392,232.20479216813055,1,A
1781598768602,4170.358158538136,-15891.97204214883,429.49789538869385,1,A
1781598768623,4086.225258427674,-15671.07259341028,365.0756576023875,1,A
1781598768646,4362.661930219193,-16076.724308366527,131.54504562702684,1,A
1781598768667,4430.7695160229005,-16056.642540299386,51.017248394143856,1,A
1781598768689,4326.604973028995,-15622.87635004914,163.75616452018002,1,A
1781598768710,3837.8328866729753,-15763.448726519127,344.94370829416675,1,A
1781598768732,4038.1493155074095,-16028.528065005388,228.17840230648642,1,A
1781598768753,4242.472072918533,-15936.15193189654,26.85890922427896,1,A
1781598768775,4114.269558464494,-15952.217346350253,171.80894424346832,1,A
1781598768797,3909.9468010533715,-15964.266407190536,204.0200631366215,1,A
1781598768818,3853.85820097973,-15904.021102989114,216.09923272155396,1,A
1781598768840,4006.0986868939003,-16088.77336920681,344.94370829416675,1,A
1781598768861,4022.1240012006547,-16157.05138063509,453.65623455855877,1,A
1781598768883,4046.161972660787,-16076.724308366527,365.0756576023875,1,A
1781598768904,3917.959458206749,-16004.42994332482,550.2895912380184,1,A
1781598768926,3853.85820097973,-15879.922981308546,457.6826244202029,1,A
1781598768947,3737.674672255758,-16116.887844500809,284.5478603695045,1,A
1781598768969,4066.1936155442304,-15879.922981308546,51.017248394143856,1,A
1781598768990,4018.117672623966,-15980.33182164425,-114.06473593326625,1,A
1781598769012,3705.6240436422486,-15900.004749375687,361.04926774074335,1,A
1781598769033,3765.718972292579,-15779.51414097284,437.5506751119822,1,A
1781598769055,4050.1683012374756,-15944.184639123396,195.9672834133332,1,A
1781598769077,4398.718887409391,-15823.694030720551,-29.510548838739123,1,A
1781598769098,4342.63028733575,-15699.187068704277,-53.668888008604014,1,A
1781598769120,4446.794830329655,-15783.530494586268,-138.22307510313115,1,A
1781598769140,4206.415115728334,-15972.299114417394,-29.510548838739123,1,A
1781598769163,3913.95312963006,-16092.78972282024,316.7589792626577,1,A
1781598769184,3901.934143899994,-16020.495357778533,397.28677649554066,1,A
1781598769206,4042.155644084098,-16000.413589711392,304.67980967772525,1,A
1781598769228,4286.541687262108,-16205.247623996229,75.17558756400875,1,A
1781598769249,4382.693573102637,-16229.345745676797,42.96446867085556,1,A
1781598769271,3905.9404724766828,-15992.380882484535,260.3895211996396,1,A
1781598769292,4154.332844231381,-15723.285190384846,328.8381488475901,1,A
1781598769314,4655.123916317467,-15763.448726519127,147.65060507360343,1,A
1781598769336,4214.4277728817115,-15928.119224669683,401.3131663571848,1,A
1781598769357,4478.845458943165,-15442.140437444872,-29.510548838739123,1,A
1781598769378,4462.82014463641,-16064.675247526242,-89.90639676340136,1,A
1781598769399,4791.339087924883,-16245.41116013051,-1.3258198072300804,1,A
1781598769421,4090.2315870043626,-15835.743091560835,179.8617239667566,1,A
1781598769443,3288.9658716666254,-15546.565631394005,566.3951506845949,1,A
1781598769464,3593.4468434949654,-15598.778228368572,83.22836728729705,1,A
1781598769486,3597.453172071654,-16100.822430047096,-85.88000690175721,1,A
1781598769508,4154.332844231381,-16727.373593741893,-291.2258898456088,1,A
1781598769530,4106.256901311117,-16655.079228700186,-335.5161783236944,1,A
1781598769551,4158.3391728080705,-15924.102871056255,-295.25227970725297,1,A
1781598769573,4002.0923583172116,-15377.878779630022,240.25757189141885,1,A
1781598769594,3873.8898438631736,-15747.383312065414,473.7881838667795,1,A
1781598769615,4322.598644452306,-16225.32939206337,191.94089355168907,1,A
1781598769637,4867.459330881968,-15699.187068704277,-174.4605838579285,1,A
1781598769658,4370.67458737257,-15405.993254924018,-85.88000690175721,1,A
1781598769681,4446.794830329655,-16060.658893912814,22.832519362634812,1,A
1781598769702,4635.092273434024,-15964.266407190536,103.36031659551779,1,A
1781598769724,4386.699901679325,-15952.217346350253,256.36313133799547,1,A
1781598769745,4110.263229887806,-15835.743091560835,256.36313133799547,1,A
1781598769767,4947.585902415741,-15875.906627695118,-69.7744474551806,1,A
1781598769788,4743.263145004618,-15703.203422317705,119.4658760420944,1,A
1781598769810,4386.699901679325,-15775.497787359413,183.88811382840078,1,A
1781598769831,4210.421444305023,-16096.806076433668,151.6769949352476,1,A
1781598769853,4414.744201716146,-16004.42994332482,71.1491977023646,1,A
1781598769874,4242.472072918533,-15843.775798787692,143.62421521195927,1,A
1781598769895,3873.8898438631736,-15755.416019292272,373.12843732567575,1,A
1781598769917,3970.041729703702,-15851.808506014548,280.52147050786033,1,A
1781598769939,4114.269558464494,-16080.740661979955,-17.431379253806675,1,A
1781598769961,4190.389801421579,-16104.838783660523,34.91168894756726,1,A
1781598769982,4014.1113440472773,-15831.726737947407,-5.352209668874229,1,A
1781598770003,3697.611386488871,-15759.4323729057,-57.69527787024816,1,A
1781598770025,3769.725300869268,-16068.69160113967,-162.38141427299604,1,A
1781598770047,4142.313858501316,-16012.462650551675,-134.196685241487,1,A
1781598770068,4218.434101458401,-15928.119224669683,-17.431379253806675,1,A
1781598770090,3921.9657867834376,-15875.906627695118,38.93807880921141,1,A
1781598770112,3897.927815323306,-16201.231270382801,-13.404989392162527,1,A
1781598770133,4362.661930219193,-16024.51171139196,-57.69527787024816,1,A
1781598770155,4110.263229887806,-15920.086517442827,111.41309631880608,1,A
1781598770176,4362.661930219193,-15622.87635004914,224.15201244484226,1,A
1781598770198,4166.351829961448,-15807.628616266838,526.1312520681535,1,A
1781598770218,4282.535358685419,-16104.838783660523,445.60345483527044,1,A
1781598770241,4538.940387593495,-15855.824859627975,119.4658760420944,1,A
1781598770262,4655.123916317467,-15783.530494586268,-9.378599530518379,1,A
1781598770284,4518.908744710052,-15891.97204214883,91.28114701058534,1,A
1781598770305,4426.763187446212,-15900.004749375687,151.6769949352476,1,A
1781598770327,4290.548015838796,-16028.528065005388,99.33392673387364,1,A
1781598770350,4410.737873139457,-15751.399665678844,42.96446867085556,1,A
1781598770371,4118.2758870411835,-15590.745521141716,228.17840230648642,1,A
1781598770393,3781.744286599334,-15920.086517442827,228.17840230648642,1,A
1781598770415,4158.3391728080705,-16337.787293239358,-57.69527787024816,1,A
1781598770437,4290.548015838796,-15968.282760803966,-45.61610828531572,1,A
1781598770458,3721.6493579490034,-15646.97447172971,465.73540414349117,1,A
1781598770480,3429.1873718507295,-16008.446296938248,602.6326594393922,1,A
1781598770500,3946.00375824357,-16301.640110718505,195.9672834133332,1,A
1781598770522,4150.326515654693,-15984.348175257679,-106.01195620997795,1,A
1781598770544,3901.934143899994,-15827.71038433398,127.51865576538269,1,A
1781598770565,3801.775929482777,-15920.086517442827,204.0200631366215,1,A
1781598770588,4030.136658354032,-16124.920551727664,-25.484158977094975,1,A
1781598770609,4278.529030108731,-16157.05138063509,-85.88000690175721,1,A
1781598770630,4118.2758870411835,-16020.495357778533,175.83533410511248,1,A
1781598770652,4178.370815691514,-15831.726737947407,107.38670645716194,1,A
1781598770674,4186.383472844891,-15775.497787359413,127.51865576538269,1,A
1781598770695,4110.263229887806,-15988.364528871107,127.51865576538269,1,A
1781598770717,4378.687244525948,-15843.775798787692,-61.72166773189232,1,A
1781598770738,4454.807487483033,-15711.23612954456,14.779739639346515,1,A
1781598770759,4186.383472844891,-15839.759445174264,131.54504562702684,1,A
1781598770781,3966.0354011270133,-16056.642540299386,316.7589792626577,1,A
1781598770803,4206.415115728334,-15968.282760803966,-9.378599530518379,1,A
1781598770825,4302.567001568863,-15900.004749375687,-9.378599530518379,1,A
1781598770846,4210.421444305023,-15936.15193189654,115.43948618045023,1,A
1781598770867,4198.402458574957,-15988.364528871107,87.2547571489412,1,A
1781598770889,4190.389801421579,-15964.266407190536,87.2547571489412,1,A
1781598770910,4278.529030108731,-15863.857566854833,111.41309631880608,1,A
1781598770933,4134.301201347938,-15992.380882484535,171.80894424346832,1,A
1781598770954,4234.459415765155,-15976.315468030822,216.09923272155396,1,A
1781598770975,4282.535358685419,-16100.822430047096,216.09923272155396,1,A
1781598770997,4318.592315875618,-15928.119224669683,224.15201244484226,1,A
1781598771019,4050.1683012374756,-15920.086517442827,461.70901428184703,1,A
1781598771040,4006.0986868939003,-15972.299114417394,340.91731843252256,1,A
1781598771062,3966.0354011270133,-15787.546848199698,256.36313133799547,1,A
1781598771083,3865.877186709796,-15940.168285509968,167.78255438182418,1,A
1781598771104,3857.864529556419,-15863.857566854833,22.832519362634812,1,A
1781598771126,3857.864529556419,-15900.004749375687,14.779739639346515,1,A
1781598771148,3725.655686525692,-16153.035027021662,38.93807880921141,1,A
1781598771169,3829.820229519598,-16092.78972282024,119.4658760420944,1,A
1781598771191,3921.9657867834376,-15984.348175257679,22.832519362634812,1,A
1781598771213,4086.225258427674,-15863.857566854833,-1.3258198072300804,1,A
1781598771234,4134.301201347938,-16185.165855929088,95.30753687222949,1,A
1781598771255,3962.0290725503246,-15940.168285509968,272.46869078457206,1,A
1781598771277,4006.0986868939003,-15731.317897611701,308.7061995393694,1,A
1781598771298,4170.358158538136,-16189.182209542516,256.36313133799547,1,A
1781598771320,4542.946716170184,-16092.78972282024,-89.90639676340136,1,A
1781598771342,4206.415115728334,-15630.909057275998,14.779739639346515,1,A
1781598771363,3917.959458206749,-15859.841213241405,175.83533410511248,1,A
1781598771385,4082.218929850985,-16028.528065005388,175.83533410511248,1,A
1781598771407,4326.604973028995,-16016.479004165103,-9.378599530518379,1,A
1781598771427,4234.459415765155,-15944.184639123396,244.283961753063,1,A
1781598771449,4118.2758870411835,-15831.726737947407,381.1812170489641,1,A
1781598771471,4082.218929850985,-15932.135578283112,340.91731843252256,1,A
1781598771493,4238.465744341844,-16088.77336920681,79.2019774256529,1,A
1781598771514,4338.623958759061,-16209.263977609657,75.17558756400875,1,A
1781598771536,3998.086029740523,-15960.250053577109,493.9201331750002,1,A
1781598771557,3877.8961724398623,-15546.565631394005,719.3979654270726,1,A
1781598771579,4206.415115728334,-15727.301543998274,308.7061995393694,1,A
1781598771600,4623.073287703957,-16201.231270382801,-134.196685241487,1,A
1781598771622,3917.959458206749,-15968.282760803966,260.3895211996396,1,A
1781598771644,3208.839300132852,-15759.4323729057,614.7118290243247,1,A
1781598771665,3264.927900206493,-15908.037456602542,139.59782535031513,1,A
1781598771686,3909.9468010533715,-16249.427513743938,-154.32863454970774,1,A
1781598771708,3685.592400758805,-16289.591049878221,-1.3258198072300804,1,A
1781598771730,3745.6873294091356,-15976.315468030822,123.49226590373854,1,A
1781598771751,3805.7822580594657,-15900.004749375687,46.99085853249971,1,A
1781598771773,3962.0290725503246,-16273.525635424508,-1.3258198072300804,1,A
1781598771794,3954.016415396947,-16008.446296938248,51.017248394143856,1,A
1781598771816,3773.7316294459565,-15683.121654250564,163.75616452018002,1,A
1781598771838,4202.408787151646,-15863.857566854833,187.9145036900449,1,A
1781598771859,4402.72521598608,-15847.79215240112,433.524285250338,1,A
1781598771880,4274.522701532042,-15984.348175257679,566.3951506845949,1,A
1781598771902,4498.877101826608,-16140.985966181377,171.80894424346832,1,A
1781598771924,4579.003673360382,-15839.759445174264,6.726959916058218,1,A
1781598771945,4334.6176301823725,-15883.939334921974,119.4658760420944,1,A
1781598771967,3974.0480582803907,-16124.920551727664,115.43948618045023,1,A
1781598771988,4426.763187446212,-16072.7079547531,-37.56332856202742,1,A
1781598772009,4294.5543444154855,-15743.366958451987,204.0200631366215,1,A
1781598772032,4050.1683012374756,-15743.366958451987,473.7881838667795,1,A
1781598772053,4014.1113440472773,-15916.0701638294,457.6826244202029,1,A
1781598772075,4418.750530292835,-16120.904198114236,191.94089355168907,1,A
1781598772096,4466.826473213099,-15811.644969880266,2.7005700544140683,1,A
1781598772118,4222.440430035089,-15936.15193189654,332.8645387092343,1,A
1781598772139,4078.2126012742965,-15996.397236097962,365.0756576023875,1,A
1781598772160,3946.00375824357,-15871.890274081688,429.49789538869385,1,A
1781598772182,3629.5038006851637,-15663.039886183424,566.3951506845949,1,A
1781598772204,3829.820229519598,-15940.168285509968,159.7297746585359,1,A
1781598772226,4126.288544194561,-16108.855137273953,-218.7508723360141,1,A
1781598772247,3845.8455438263527,-15875.906627695118,18.806129500990664,1,A
1781598772269,3557.3898863047675,-15924.102871056255,276.4950806462162,1,A
1781598772291,3737.674672255758,-16072.7079547531,75.17558756400875,1,A
1781598772312,4294.5543444154855,-16124.920551727664,-214.72448247436998,1,A
1781598772334,4142.313858501316,-16040.577125845673,151.6769949352476,1,A
1781598772355,4186.383472844891,-15847.79215240112,316.7589792626577,1,A
1781598772376,4258.497387225288,-15976.315468030822,357.02287787909916,1,A
1781598772398,4603.041644820514,-16422.130719121353,131.54504562702684,1,A
1781598772420,4410.737873139457,-16157.05138063509,308.7061995393694,1,A
1781598772442,3721.6493579490034,-15546.565631394005,421.4451156654056,1,A
1781598772463,3677.579743605428,-15233.290049546607,497.9465230366444,1,A
1781598772484,4226.446758611778,-15566.647399461146,63.0964179790763,1,A
1781598772506,4583.010001937071,-16438.196133575064,-106.01195620997795,1,A
1781598772527,4615.06063055058,-16060.658893912814,-287.19949998396464,1,A
1781598772549,4142.313858501316,-15879.922981308546,115.43948618045023,1,A
1781598772570,3845.8455438263527,-15771.481433745985,300.6534198160811,1,A
1781598772592,4086.225258427674,-16016.479004165103,204.0200631366215,1,A
1781598772613,4142.313858501316,-16100.822430047096,300.6534198160811,1,A
1781598772635,4154.332844231381,-16068.69160113967,191.94089355168907,1,A
1781598772657,4166.351829961448,-15940.168285509968,236.23118202977471,1,A
1781598772679,4286.541687262108,-15916.0701638294,276.4950806462162,1,A
1781598772700,3954.016415396947,-16056.642540299386,328.8381488475901,1,A
1781598772721,4130.294872771249,-15767.465080132555,324.81175898594597,1,A
1781598772743,3817.801243789532,-15626.89270366257,405.33955621882893,1,A
1781598772765,3861.8708581331075,-15779.51414097284,195.9672834133332,1,A
1781598772786,4034.142986930721,-15835.743091560835,-49.642498146959866,1,A
1781598772808,4014.1113440472773,-15895.988395762259,-150.30224468806358,1,A
1781598772829,3749.6936579858243,-15996.397236097962,-33.536938700383274,1,A
1781598772851,3881.902501016551,-15996.397236097962,-61.72166773189232,1,A
1781598772873,4126.288544194561,-15940.168285509968,-29.510548838739123,1,A
1781598772894,4094.2379155810513,-15960.250053577109,204.0200631366215,1,A
1781598772915,3970.041729703702,-16205.247623996229,-81.85361704011306,1,A
1781598772937,4174.364487114824,-16024.51171139196,-174.4605838579285,1,A
1781598772959,3986.067044010457,-16072.7079547531,59.07002811743215,1,A
1781598772980,3609.47215780172,-15908.037456602542,441.5770649736263,1,A
1781598773002,3849.8518724030414,-15646.97447172971,87.2547571489412,1,A
1781598773024,4330.611301605683,-15976.315468030822,-246.93560136752316,1,A
1781598773045,4358.655601642505,-16080.740661979955,-106.01195620997795,1,A
1781598773067,4238.465744341844,-15707.219775931133,-37.56332856202742,1,A
1781598773088,4138.307529924627,-15819.677677107122,151.6769949352476,1,A
1781598773109,4178.370815691514,-16205.247623996229,22.832519362634812,1,A
1781598773131,4354.649273065816,-16157.05138063509,103.36031659551779,1,A
1781598773153,4302.567001568863,-15755.416019292272,83.22836728729705,1,A
1781598773174,4086.225258427674,-15638.941764502853,352.996488017455,1,A
1781598773196,4342.63028733575,-15960.250053577109,240.25757189141885,1,A
1781598773217,4466.826473213099,-16044.593479459101,75.17558756400875,1,A
1781598773239,4294.5543444154855,-15871.890274081688,79.2019774256529,1,A
1781598773260,3946.00375824357,-15807.628616266838,328.8381488475901,1,A
1781598773282,3954.016415396947,-15735.334251225131,272.46869078457206,1,A
1781598773303,3901.934143899994,-15940.168285509968,55.043638255788004,1,A
1781598773325,3801.775929482777,-16012.462650551675,-122.11751565655454,1,A
1781598773347,4022.1240012006547,-15779.51414097284,-174.4605838579285,1,A
1781598773369,3689.5987293354938,-16008.446296938248,67.12280784072045,1,A
1781598773390,3661.5544292986733,-16165.084087861947,179.8617239667566,1,A
1781598773410,3925.9721153601263,-16165.084087861947,6.726959916058218,1,A
1781598773433,3781.744286599334,-16104.838783660523,220.12562258319812,1,A
1781598773454,3974.0480582803907,-15908.037456602542,26.85890922427896,1,A
1781598773476,4206.415115728334,-16020.495357778533,-61.72166773189232,1,A
1781598773498,4498.877101826608,-16253.443867357368,-69.7744474551806,1,A
1781598773519,4210.421444305023,-15988.364528871107,83.22836728729705,1,A
1781598773540,3974.0480582803907,-15819.677677107122,240.25757189141885,1,A
1781598773562,4098.24424415774,-15839.759445174264,139.59782535031513,1,A
1781598773583,4242.472072918533,-15847.79215240112,-29.510548838739123,1,A
1781598773606,4330.611301605683,-15956.233699963681,26.85890922427896,1,A
1781598773627,4086.225258427674,-15771.481433745985,183.88811382840078,1,A
1781598773648,4070.199944120919,-15972.299114417394,79.2019774256529,1,A
1781598773670,4126.288544194561,-16036.560772232246,-17.431379253806675,1,A
1781598773692,4198.402458574957,-16008.446296938248,220.12562258319812,1,A
1781598773713,4182.377144268202,-15871.890274081688,75.17558756400875,1,A
1781598773734,3990.0733725871455,-15992.380882484535,248.31035161470714,1,A
1781598773757,4050.1683012374756,-16165.084087861947,268.44230092292787,1,A
1781598773778,4014.1113440472773,-15891.97204214883,425.4715055270497,1,A
1781598773799,4038.1493155074095,-15976.315468030822,236.23118202977471,1,A
1781598773820,4106.256901311117,-16056.642540299386,228.17840230648642,1,A
1781598773842,3974.0480582803907,-15783.530494586268,224.15201244484226,1,A
1781598773864,3865.877186709796,-15731.317897611701,413.39233594211726,1,A
1781598773886,3741.681000832447,-15976.315468030822,240.25757189141885,1,A
1781598773907,3849.8518724030414,-16108.855137273953,2.7005700544140683,1,A
1781598773929,3962.0290725503246,-15960.250053577109,-93.93278662504551,1,A
1781598773950,3869.883515286485,-15815.661323493694,155.70338479689173,1,A
1781598773972,3757.7063151392017,-16028.528065005388,312.7325894010135,1,A
1781598773993,3769.725300869268,-16076.724308366527,208.04645299826566,1,A
1781598774015,4390.706230256013,-16181.14950231566,-106.01195620997795,1,A
1781598774037,4446.794830329655,-15996.397236097962,2.7005700544140683,1,A
1781598774058,3901.934143899994,-15811.644969880266,312.7325894010135,1,A
1781598774080,3881.902501016551,-16044.593479459101,308.7061995393694,1,A
1781598774101,4178.370815691514,-15867.87392046826,46.99085853249971,1,A
1781598774122,4478.845458943165,-15972.299114417394,10.753349777702367,1,A
1781598774144,4038.1493155074095,-15900.004749375687,151.6769949352476,1,A
1781598774166,4066.1936155442304,-16016.479004165103,208.04645299826566,1,A
1781598774188,4222.440430035089,-15992.380882484535,-53.668888008604014,1,A
1781598774208,4210.421444305023,-15964.266407190536,-5.352209668874229,1,A
1781598774230,4050.1683012374756,-15952.217346350253,216.09923272155396,1,A
1781598774253,4154.332844231381,-15831.726737947407,320.78536912430184,1,A
1781598774274,4174.364487114824,-15883.939334921974,220.12562258319812,1,A
1781598774295,4122.282215617872,-15976.315468030822,348.9700981558109,1,A
1781598774317,4230.453087188466,-15980.33182164425,296.6270299544369,1,A
1781598774338,4154.332844231381,-15944.184639123396,95.30753687222949,1,A
1781598774360,3929.978443936815,-15944.184639123396,284.5478603695045,1,A
1781598774381,3941.997429666881,-15928.119224669683,308.7061995393694,1,A
1781598774404,4130.294872771249,-15779.51414097284,10.753349777702367,1,A
1781598774425,4122.282215617872,-15895.988395762259,34.91168894756726,1,A
1781598774446,3873.8898438631736,-15960.250053577109,67.12280784072045,1,A
1781598774468,3781.744286599334,-15851.808506014548,256.36313133799547,1,A
1781598774489,3685.592400758805,-15984.348175257679,22.832519362634812,1,A
1781598774511,3665.560757875362,-16157.05138063509,-57.69527787024816,1,A
1781598774533,3805.7822580594657,-16136.96961256795,6.726959916058218,1,A
1781598774554,3865.877186709796,-16193.198563155944,14.779739639346515,1,A
1781598774576,3893.921486746617,-16092.78972282024,131.54504562702684,1,A
1781598774597,3745.6873294091356,-15916.0701638294,405.33955621882893,1,A
1781598774619,4058.180958390853,-15819.677677107122,91.28114701058534,1,A
1781598774641,4102.250572734429,-16108.855137273953,91.28114701058534,1,A
1781598774662,4382.693573102637,-15863.857566854833,87.2547571489412,1,A
1781598774684,4058.180958390853,-15582.712813914859,224.15201244484226,1,A
1781598774704,4194.396129998268,-15731.317897611701,296.6270299544369,1,A
1781598774726,4362.661930219193,-16000.413589711392,-65.74805759353646,1,A
1781598774748,4542.946716170184,-15964.266407190536,-142.24946496477529,1,A
1781598774769,4118.2758870411835,-15843.775798787692,284.5478603695045,1,A
1781598774790,4042.155644084098,-15815.661323493694,220.12562258319812,1,A
1781598774813,4190.389801421579,-15855.824859627975,163.75616452018002,1,A
1781598774834,4346.636615912438,-15904.021102989114,14.779739639346515,1,A
1781598774856,4146.320187078004,-16112.87149088738,256.36313133799547,1,A
1781598774877,3757.7063151392017,-16092.78972282024,393.26038663389653,1,A
1781598774899,4078.2126012742965,-15779.51414097284,308.7061995393694,1,A
1781598774920,3950.0100868202585,-16076.724308366527,312.7325894010135,1,A
1781598774942,4094.2379155810513,-16004.42994332482,191.94089355168907,1,A
1781598774964,4106.256901311117,-15803.61226265341,220.12562258319812,1,A
1781598774985,3998.086029740523,-15755.416019292272,147.65060507360343,1,A
1781598775007,3861.8708581331075,-16064.675247526242,51.017248394143856,1,A
1781598775028,4002.0923583172116,-15992.380882484535,-69.7744474551806,1,A
1781598775050,3777.737958022645,-15847.79215240112,131.54504562702684,1,A
1781598775072,3705.6240436422486,-15815.661323493694,42.96446867085556,1,A
1781598775093,3645.5291149919185,-16136.96961256795,63.0964179790763,1,A
1781598775115,4178.370815691514,-16361.885414919929,-218.7508723360141,1,A
1781598775136,4194.396129998268,-16394.016243827355,26.85890922427896,1,A
1781598775158,4266.510044378665,-15891.97204214883,30.885299085923112,1,A
1781598775179,3905.9404724766828,-15743.366958451987,191.94089355168907,1,A
1781598775201,4230.453087188466,-15871.890274081688,224.15201244484226,1,A
1781598775222,4611.054301973892,-16092.78972282024,-33.536938700383274,1,A
1781598775243,4466.826473213099,-15912.053810215972,-13.404989392162527,1,A
1781598775265,4178.370815691514,-15747.383312065414,139.59782535031513,1,A
1781598775287,4186.383472844891,-15883.939334921974,99.33392673387364,1,A
1781598775309,4506.889758979985,-15904.021102989114,-21.457769115450827,1,A
1781598775330,4222.440430035089,-16000.413589711392,320.78536912430184,1,A
1781598775351,4418.750530292835,-15960.250053577109,67.12280784072045,1,A
1781598775373,4482.851787519854,-15859.841213241405,18.806129500990664,1,A
1781598775394,4022.1240012006547,-15831.726737947407,304.67980967772525,1,A
1781598775416,4238.465744341844,-16012.462650551675,268.44230092292787,1,A
1781598775438,4326.604973028995,-16016.479004165103,292.6006400927928,1,A
1781598775460,4046.161972660787,-15795.579555426553,212.0728428599098,1,A
1781598775481,4262.503715801976,-15791.563201813125,83.22836728729705,1,A
1781598775502,4466.826473213099,-16132.953258954522,26.85890922427896,1,A
1781598775524,4166.351829961448,-15642.958118116283,87.2547571489412,1,A
1781598775545,4006.0986868939003,-15715.25248315799,143.62421521195927,1,A
1781598775567,3745.6873294091356,-16008.446296938248,-21.457769115450827,1,A
1781598775589,4226.446758611778,-15988.364528871107,-238.88282164423487,1,A
1781598775609,4298.560672992174,-16036.560772232246,-154.32863454970774,1,A
1781598775632,3721.6493579490034,-16020.495357778533,260.3895211996396,1,A
1781598775653,3966.0354011270133,-16028.528065005388,216.09923272155396,1,A
1781598775675,4366.668258795882,-16004.42994332482,155.70338479689173,1,A
1781598775696,4430.7695160229005,-15875.906627695118,71.1491977023646,1,A
1781598775719,4338.623958759061,-15871.890274081688,288.57425023114865,1,A
1781598775740,4114.269558464494,-15731.317897611701,344.94370829416675,1,A
1781598775760,4090.2315870043626,-15811.644969880266,228.17840230648642,1,A
1781598775782,4474.839130366477,-15835.743091560835,-81.85361704011306,1,A
1781598775804,4466.826473213099,-15855.824859627975,-61.72166773189232,1,A
1781598775826,4454.807487483033,-15891.97204214883,95.30753687222949,1,A
1781598775847,4106.256901311117,-16004.42994332482,292.6006400927928,1,A
1781598775869,4146.320187078004,-16112.87149088738,216.09923272155396,1,A
1781598775890,4306.573330145551,-16084.757015593383,-5.352209668874229,1,A
1781598775912,4050.1683012374756,-15976.315468030822,393.26038663389653,1,A
1781598775934,4078.2126012742965,-15956.233699963681,324.81175898594597,1,A
1781598775955,4078.2126012742965,-16080.740661979955,336.89092857087843,1,A
1781598775977,4262.503715801976,-15984.348175257679,163.75616452018002,1,A
1781598775998,4294.5543444154855,-15839.759445174264,308.7061995393694,1,A
1781598776020,4062.1872869675417,-15879.922981308546,409.3659460804731,1,A
1781598776041,3990.0733725871455,-15960.250053577109,280.52147050786033,1,A
1781598776062,3805.7822580594657,-15916.0701638294,139.59782535031513,1,A
1781598776085,3897.927815323306,-15839.759445174264,2.7005700544140683,1,A
1781598776106,3557.3898863047675,-16000.413589711392,115.43948618045023,1,A
1781598776128,3677.579743605428,-15992.380882484535,34.91168894756726,1,A
1781598776149,3753.699986562513,-16088.77336920681,10.753349777702367,1,A
1781598776171,3901.934143899994,-16096.806076433668,2.7005700544140683,1,A
1781598776192,3873.8898438631736,-16108.855137273953,95.30753687222949,1,A
1781598776214,3970.041729703702,-16161.06773424852,159.7297746585359,1,A
1781598776235,4122.282215617872,-16064.675247526242,99.33392673387364,1,A
1781598776256,3962.0290725503246,-15831.726737947407,268.44230092292787,1,A
1781598776279,4114.269558464494,-15916.0701638294,292.6006400927928,1,A
1781598776300,4162.345501384759,-15859.841213241405,272.46869078457206,1,A
1781598776323,4110.263229887806,-15679.105300637137,344.94370829416675,1,A
1781598776345,4306.573330145551,-15823.694030720551,-65.74805759353646,1,A
1781598776366,4418.750530292835,-16052.626186685957,-142.24946496477529,1,A
1781598776388,4290.548015838796,-15743.366958451987,30.885299085923112,1,A
1781598776409,4054.1746298141643,-15988.364528871107,324.81175898594597,1,A
1781598776431,4246.478401495221,-16161.06773424852,248.31035161470714,1,A
1781598776452,4374.6809159492595,-15916.0701638294,232.20479216813055,1,A
1781598776474,4094.2379155810513,-15956.233699963681,445.60345483527044,1,A
1781598776495,4034.142986930721,-15984.348175257679,429.49789538869385,1,A
1781598776517,4186.383472844891,-16036.560772232246,328.8381488475901,1,A
1781598776539,4266.510044378665,-15936.15193189654,256.36313133799547,1,A
1781598776560,4098.24424415774,-15972.299114417394,256.36313133799547,1,A
1781598776581,3937.9911010901924,-15859.841213241405,393.26038663389653,1,A
1781598776603,4086.225258427674,-15743.366958451987,175.83533410511248,1,A
1781598776625,3889.9151581699284,-15912.053810215972,6.726959916058218,1,A
1781598776646,3909.9468010533715,-16040.577125845673,-118.0911257949104,1,A
1781598776668,3954.016415396947,-15932.135578283112,-21.457769115450827,1,A
1781598776690,3785.7506151760226,-15980.33182164425,10.753349777702367,1,A
1781598776711,3785.7506151760226,-16100.822430047096,119.4658760420944,1,A
1781598776732,4010.1050154705886,-16209.263977609657,26.85890922427896,1,A
1781598776754,4126.288544194561,-16040.577125845673,119.4658760420944,1,A
1781598776776,3950.0100868202585,-15791.563201813125,304.67980967772525,1,A
1781598776798,3962.0290725503246,-15851.808506014548,304.67980967772525,1,A
1781598776818,4334.6176301823725,-15908.037456602542,115.43948618045023,1,A
1781598776841,4418.750530292835,-15908.037456602542,87.2547571489412,1,A
1781598776862,4330.611301605683,-15695.170715090848,123.49226590373854,1,A
1781598776884,4170.358158538136,-15799.595909039981,308.7061995393694,1,A
1781598776905,4526.921401863429,-15944.184639123396,79.2019774256529,1,A
1781598776926,4631.085944857335,-16000.413589711392,6.726959916058218,1,A
1781598776948,4210.421444305023,-15940.168285509968,332.8645387092343,1,A
1781598776970,4062.1872869675417,-15928.119224669683,469.76179400513536,1,A
1781598776991,4290.548015838796,-15972.299114417394,357.02287787909916,1,A
1781598777013,4486.858116096542,-15944.184639123396,30.885299085923112,1,A
1781598777035,4422.756858869523,-15960.250053577109,127.51865576538269,1,A
1781598777056,4130.294872771249,-15944.184639123396,332.8645387092343,1,A
1781598777078,4098.24424415774,-15867.87392046826,526.1312520681535,1,A
1781598777100,4066.1936155442304,-15827.71038433398,252.3367414763513,1,A
1781598777121,4082.218929850985,-15835.743091560835,42.96446867085556,1,A
1781598777142,4070.199944120919,-16104.838783660523,26.85890922427896,1,A
1781598777164,3837.8328866729753,-15863.857566854833,-29.510548838739123,1,A
1781598777184,3553.383557728079,-15771.481433745985,139.59782535031513,1,A
1781598777206,4114.269558464494,-15992.380882484535,-226.8036520593024,1,A
1781598777228,4054.1746298141643,-16301.640110718505,6.726959916058218,1,A
1781598777250,3845.8455438263527,-16068.69160113967,67.12280784072045,1,A
1781598777272,3801.775929482777,-16116.887844500809,373.12843732567575,1,A
1781598777293,3994.079701163834,-16004.42994332482,204.0200631366215,1,A
1781598777315,3950.0100868202585,-15992.380882484535,87.2547571489412,1,A
1781598777336,4126.288544194561,-15948.200992736825,256.36313133799547,1,A
1781598777358,4106.256901311117,-15831.726737947407,212.0728428599098,1,A
1781598777379,4298.560672992174,-15904.021102989114,59.07002811743215,1,A
1781598777400,4366.668258795882,-15908.037456602542,-53.668888008604014,1,A
1781598777423,4318.592315875618,-16112.87149088738,127.51865576538269,1,A
1781598777444,4354.649273065816,-15960.250053577109,256.36313133799547,1,A
1781598777465,4110.263229887806,-15695.170715090848,457.6826244202029,1,A
1781598777488,4158.3391728080705,-15887.955688535401,365.0756576023875,1,A
1781598777509,4330.611301605683,-16044.593479459101,195.9672834133332,1,A
1781598777530,4490.864444673231,-15924.102871056255,208.04645299826566,1,A
1781598777552,4290.548015838796,-15663.039886183424,131.54504562702684,1,A
1781598777573,3946.00375824357,-15783.530494586268,236.23118202977471,1,A
1781598777595,3946.00375824357,-16100.822430047096,-13.404989392162527,1,A
1781598777616,4178.370815691514,-16128.936905341094,30.885299085923112,1,A
1781598777638,3605.4658292250315,-15755.416019292272,312.7325894010135,1,A
1781598777659,3553.383557728079,-15819.677677107122,369.1020474640316,1,A
1781598777681,3821.8075723662205,-15883.939334921974,-21.457769115450827,1,A
1781598777703,3941.997429666881,-16161.06773424852,-275.1203303990322,1,A
1781598777724,3637.516457838541,-16084.757015593383,99.33392673387364,1,A
1781598777746,3533.3519148446353,-16008.446296938248,183.88811382840078,1,A
1781598777768,3793.7632723293996,-16108.855137273953,26.85890922427896,1,A
1781598777789,4110.263229887806,-16193.198563155944,63.0964179790763,1,A
1781598777810,3901.934143899994,-16149.018673408234,187.9145036900449,1,A
1781598777832,3885.9088295932397,-15879.922981308546,385.2076069106082,1,A
1781598777854,4026.1303297773434,-15867.87392046826,473.7881838667795,1,A
1781598777875,4074.206272697608,-16008.446296938248,244.283961753063,1,A
1781598777896,4310.57965872224,-15871.890274081688,51.017248394143856,1,A
1781598777917,4306.573330145551,-15871.890274081688,163.75616452018002,1,A
1781598777940,4142.313858501316,-15779.51414097284,159.7297746585359,1,A
1781598777962,4082.218929850985,-15795.579555426553,59.07002811743215,1,A
1781598777984,4406.731544562768,-16056.642540299386,-9.378599530518379,1,A
1781598778004,4266.510044378665,-16060.658893912814,147.65060507360343,1,A
1781598778026,4090.2315870043626,-15839.759445174264,131.54504562702684,1,A
1781598778047,3937.9911010901924,-15875.906627695118,175.83533410511248,1,A
1781598778069,4030.136658354032,-16145.002319794807,240.25757189141885,1,A
1781598778091,4170.358158538136,-16265.492928197651,228.17840230648642,1,A
1781598778112,3893.921486746617,-16004.42994332482,542.23681151473,1,A
