timestamp,ax,ay,az,label,subject_id
1781598933052,624.7573681686498,-16494.425084163056,1009.2980354654513,2,A
1781598933053,520.592825174744,-16096.806076433668,1017.3508151887396,2,A
1781598933053,680.8459682422914,-16434.179779961636,1109.957782006555,2,A
1781598933054,440.4662536409703,-16767.537129876175,1593.1245654038528,2,A
1781598933055,933.2446685736786,-16153.035027021662,1230.7494778558794,2,A
1781598933055,1257.757283285462,-16582.78486365848,997.2188658805188,2,A
1781598933056,1137.5674259848015,-16498.441437776484,948.9021875407891,2,A
1781598933057,356.33335353050796,-16598.85027811219,1411.9370216298662,2,A
1781598933057,644.7890110520933,-16349.836354079644,779.7938133517348,2,A
1781598933058,452.4852393710364,-16349.836354079644,1271.013376472321,2,A
1781598933059,27.814410242035763,-16418.11436550792,1609.2301248504295,2,A
1781598933059,-1670.8689062739668,-17321.793928529263,2116.5552474175925,2,A
1781598933060,1842.68125548201,-13779.370041485601,-488.5189930661721,2,A
1781598933061,1458.0737121198963,-15791.563201813125,538.2104216530859,2,A
1781598933061,416.4282821808382,-16972.37116416101,1959.5260428134704,2,A
1781598933062,1486.1180121567172,-16783.602544329886,880.4535598928385,2,A
1781598933062,1177.6307117516883,-16538.604973910766,1061.6411036668253,2,A
1781598933063,660.814325358848,-16626.964753406188,1371.6731230134246,2,A
1781598933064,1149.5864117148676,-16566.719449204764,932.7966280942125,2,A
1781598933064,1253.7509547087734,-16321.721878785645,1025.403594912028,2,A
1781598933065,612.7383824385838,-16385.9835366005,1649.4940234668709,2,A
1781598933066,1009.3649115307636,-16474.343316095918,1242.828647440812,2,A
1781598933067,1293.8142404756602,-16197.214916769373,1162.300850207929,2,A
1781598933067,1718.4850696046608,-16201.231270382801,932.7966280942125,2,A
1781598933068,1662.3964695310192,-16072.7079547531,928.7702382325683,2,A
1781598933068,1005.3585829540749,-16345.820000466216,1496.4912087243933,2,A
1781598933068,1734.5103839114156,-16209.263977609657,997.2188658805188,2,A
1781598933070,1962.8711127826707,-16281.558342651364,807.9785423832438,2,A
1781598933070,1790.5989839850572,-16088.77336920681,727.4507451503608,2,A
1781598933071,1498.1369978867833,-16377.950829373642,1307.2508852271183,2,A
1781598933071,1614.320526610755,-16325.738232399075,1182.4327995161498,2,A
1781598933071,1666.402798107708,-16209.263977609657,1049.5619340818928,2,A
1781598933072,1562.238255113802,-16494.425084163056,1174.3800197928615,2,A
1781598933072,1830.662269751944,-16341.803646852788,876.4271700311944,2,A
1781598933073,1305.8332262057263,-16426.14707273478,1440.1217506613752,2,A
1781598933073,1518.1686407702266,-16293.60740349165,892.532729477771,2,A
1781598933074,1341.8901833959244,-16522.539559457055,956.9549672640774,2,A
1781598933074,672.8333110889141,-16831.798787691027,1959.5260428134704,2,A
1781598933075,528.6054823281214,-16181.14950231566,1548.8342769257672,2,A
1781598933076,756.9662111993764,-16193.198563155944,1190.485579239438,2,A
1781598933076,1253.7509547087734,-16060.658893912814,908.6382889243475,2,A
1781598933077,985.3269400706315,-16365.901768533357,1271.013376472321,2,A
1781598933077,1101.5104687946034,-16542.621327524193,993.1924760188747,2,A
1781598933078,1061.4471830277166,-16614.9156925659,928.7702382325683,2,A
1781598933079,1017.377568684141,-16530.57226668391,816.0313221065321,2,A
1781598933079,897.1877113834804,-16438.196133575064,1017.3508151887396,2,A
1781598933080,781.0041826595086,-16490.40873054963,1258.9342068873884,2,A
1781598933081,1301.8268976290376,-16357.869061306501,993.1924760188747,2,A
1781598933082,1454.0673835432076,-16398.032597440782,924.7438483709242,2,A
1781598933082,368.352339260574,-17406.137354411258,1951.4732630901822,2,A
1781598933082,1129.554768831424,-16510.49049861677,1146.1952907613525,2,A
1781598933084,1221.700326095264,-16217.296684836514,844.2160511380412,2,A
1781598933085,873.1497399233483,-16345.820000466216,1299.19810550383,2,A
1781598933086,793.0231683895746,-16213.280331223084,1520.6495478942581,2,A
1781598933086,885.1687256534144,-16731.38994735532,944.875797679145,2,A
1781598933087,1502.1433264634718,-16265.492928197651,417.4187258037614,2,A
1781598933087,1165.6117260216224,-16470.326962482486,868.3743903079061,2,A
1781598933087,1277.7889261689056,-16209.263977609657,920.71745850928,2,A
1781598933088,897.1877113834804,-16201.231270382801,1017.3508151887396,2,A
1781598933089,1237.7256404020186,-16402.04895105421,554.3159810996625,2,A
1781598933089,1073.4661687577825,-16506.47414500334,852.2688308613294,2,A
1781598933089,941.257325727056,-16550.654034751053,1073.7202732517576,2,A
1781598933090,837.0927827331502,-16048.609833072529,1093.8522225599784,2,A
1781598933091,793.0231683895746,-16048.609833072529,1041.5091543586045,2,A
1781598933091,1414.0040977763208,-16671.144643153897,1001.245255742163,2,A
1781598933092,1141.5737545614902,-16663.11193592704,1387.7786824600014,2,A
1781598933092,1125.5484402547354,-16498.441437776484,1138.142511038064,2,A
1781598933093,1353.9091691259905,-16084.757015593383,606.6590493010364,2,A
1781598933093,1077.4724973344712,-16201.231270382801,876.4271700311944,2,A
1781598933093,853.1180970399049,-16406.065304667638,1009.2980354654513,2,A
1781598933094,748.9535540459991,-16377.950829373642,1029.429984773672,2,A
1781598933095,1037.4092115675844,-16293.60740349165,695.2396262572076,2,A
1781598933097,1029.396554414207,-16446.22884080192,791.8729829366672,2,A
1781598933097,801.035825542952,-16639.01381424647,1339.4620041202716,2,A
1781598933098,1053.4345258743392,-16430.16342634821,1174.3800197928615,2,A
1781598933098,1013.3712401074523,-16301.640110718505,985.1396962955864,2,A
1781598933099,1297.820569052349,-16530.57226668391,944.875797679145,2,A
1781598933099,897.1877113834804,-16510.49049861677,1335.4356142586273,2,A
1781598933100,853.1180970399049,-16438.196133575064,1299.19810550383,2,A
1781598933100,1265.7699404388395,-16398.032597440782,844.2160511380412,2,A
1781598933101,889.1750542301031,-16369.918122146784,1089.8258326983344,2,A
1781598933101,524.5991537514327,-16534.588620297338,1379.725902736713,2,A
1781598933102,921.2256828436125,-16389.999890213927,896.5591193394151,2,A
1781598933103,1093.497811641226,-16237.378452903655,715.3715755654284,2,A
1781598933104,1189.6496974817544,-16253.443867357368,795.8993727983114,2,A
1781598933104,636.7763538987159,-16518.523205843627,1363.6203432901364,2,A
1781598933105,933.2446685736786,-16398.032597440782,1021.3772050503837,2,A
1781598933105,1209.681340365198,-16213.280331223084,779.7938133517348,2,A
1781598933106,885.1687256534144,-16482.376023322773,1202.5647488243706,2,A
1781598933106,688.8586253956688,-16542.621327524193,1504.5439884476816,2,A
1781598933107,1021.3838972608297,-16518.523205843627,1101.9050022832666,2,A
1781598933107,973.3079543405654,-16269.50928181108,960.9813571257215,2,A
1781598933108,853.1180970399049,-16285.574696264792,1065.6674935284693,2,A
1781598933108,825.0737970030841,-16446.22884080192,1186.4591893777938,2,A
1781598933108,801.035825542952,-16281.558342651364,1178.4064096545055,2,A
1781598933113,921.2256828436125,-16112.87149088738,1053.588323943537,2,A
1781598933135,941.257325727056,-16743.439008195604,1134.11612117642,2,A
1781598933156,1177.6307117516883,-16960.322103320726,1053.588323943537,2,A
1781598933178,1021.3838972608297,-16281.558342651364,1061.6411036668253,2,A
1781598933200,764.9788683527538,-16080.740661979955,1202.5647488243706,2,A
1781598933222,813.054811273018,-16333.77093962593,1182.4327995161498,2,A
1781598933242,933.2446685736786,-16546.637681137625,1057.614713805181,2,A
1781598933265,1061.4471830277166,-16293.60740349165,920.71745850928,2,A
1781598933286,889.1750542301031,-16381.96718298707,1154.2480704846407,2,A
1781598933308,736.934568315933,-16514.5068522302,1254.9078170257444,2,A
1781598933329,841.0991113098388,-16506.47414500334,1109.957782006555,2,A
1781598933351,781.0041826595086,-16450.245194415347,1206.5911386860146,2,A
1781598933373,829.0801255797728,-16486.3923769362,1085.79944283669,2,A
1781598933393,724.915582585867,-16201.231270382801,940.8494078175007,2,A
1781598933416,660.814325358848,-16329.754586012503,1142.1689008997082,2,A
1781598933438,837.0927827331502,-16438.196133575064,940.8494078175007,2,A
1781598933458,772.9915255061312,-16574.75215643162,1226.7230879942354,2,A
1781598933481,740.9408968926217,-16647.046521473327,1339.4620041202716,2,A
1781598933502,404.40929645077216,-16181.14950231566,1411.9370216298662,2,A
1781598933523,909.2066971135465,-16313.68917155879,1053.588323943537,2,A
1781598933546,873.1497399233483,-16586.801217271906,1210.6175285476588,2,A
1781598933567,1241.7319689787073,-16562.703095591336,1021.3772050503837,2,A
1781598933588,1033.4028829908957,-16249.427513743938,973.0605267106539,2,A
1781598933609,945.2636543037447,-16426.14707273478,956.9549672640774,2,A
1781598933631,901.1940399601691,-16337.787293239358,1105.931392144911,2,A
1781598933653,969.3016257638768,-16526.555913070482,1081.773052975046,2,A
1781598933675,889.1750542301031,-16361.885414919929,1101.9050022832666,2,A
1781598933696,660.814325358848,-16438.196133575064,1093.8522225599784,2,A
1781598933717,1181.637040328377,-16675.160996767325,783.8202032133789,2,A
1781598933738,837.0927827331502,-16598.85027811219,1130.0897313147757,2,A
1781598933760,600.7193967085177,-16309.672817945362,1347.5147838435598,2,A
1781598933782,781.0041826595086,-16297.623757105077,1021.3772050503837,2,A
1781598933803,893.1813828067917,-16277.541989037936,985.1396962955864,2,A
1781598933825,933.2446685736786,-16546.637681137625,1077.7466631134018,2,A
1781598933847,672.8333110889141,-16530.57226668391,1194.511969101082,2,A
1781598933868,857.1244256165936,-16373.934475760212,896.5591193394151,2,A
1781598933890,825.0737970030841,-16197.214916769373,940.8494078175007,2,A
1781598933911,720.9092540091783,-16345.820000466216,1162.300850207929,2,A
1781598933932,825.0737970030841,-16506.47414500334,1218.670308270947,2,A
1781598933955,1121.5421116780467,-16426.14707273478,880.4535598928385,2,A
1781598933976,1233.71931182533,-16237.378452903655,719.3979654270726,2,A
1781598933998,809.0484826963294,-16418.11436550792,1186.4591893777938,2,A
1781598934019,873.1497399233483,-16506.47414500334,1218.670308270947,2,A
1781598934041,764.9788683527538,-16426.14707273478,1033.4563746353163,2,A
1781598934062,1029.396554414207,-16333.77093962593,948.9021875407891,2,A
1781598934084,1089.4914830645373,-16430.16342634821,1005.2716456038072,2,A
1781598934105,945.2636543037447,-16671.144643153897,1089.8258326983344,2,A
1781598934127,897.1877113834804,-16510.49049861677,1085.79944283669,2,A
1781598934148,917.2193542669239,-16185.165855929088,952.9285774024332,2,A
1781598934170,1073.4661687577825,-16213.280331223084,820.0577119681762,2,A
1781598934192,1137.5674259848015,-16574.75215643162,997.2188658805188,2,A
1781598934213,977.3142829172541,-16799.6679587836,1109.957782006555,2,A
1781598934235,760.9725397760651,-16361.885414919929,1250.8814271641002,2,A
1781598934256,989.3332686473202,-16096.806076433668,820.0577119681762,2,A
1781598934278,1005.3585829540749,-16474.343316095918,904.6118990627034,2,A
1781598934300,1057.440854451028,-16550.654034751053,1049.5619340818928,2,A
1781598934320,825.0737970030841,-16490.40873054963,1202.5647488243706,2,A
1781598934342,925.2320114203012,-16189.182209542516,1113.9841718681992,2,A
1781598934364,632.7700253220272,-16349.836354079644,1238.8022575791679,2,A
1781598934385,837.0927827331502,-16566.719449204764,1331.4092243969833,2,A
1781598934407,1133.5610974081128,-16458.277901642203,1017.3508151887396,2,A
1781598934429,1129.554768831424,-16209.263977609657,795.8993727983114,2,A
1781598934450,720.9092540091783,-15900.004749375687,1206.5911386860146,2,A
1781598934471,768.9851969294425,-16197.214916769373,1178.4064096545055,2,A
1781598934493,945.2636543037447,-16434.179779961636,1057.614713805181,2,A
1781598934515,933.2446685736786,-16566.719449204764,1218.670308270947,2,A
1781598934536,616.7447110152725,-16337.787293239358,1387.7786824600014,2,A
1781598934558,789.0168398128859,-16293.60740349165,1202.5647488243706,2,A
1781598934580,1145.580083138179,-17643.10221760352,1738.0746004230423,2,A
1781598934601,933.2446685736786,-17016.551053908723,1363.6203432901364,2,A
1781598934623,1866.7192269421423,-17165.156137605565,876.4271700311944,2,A
1781598934645,432.45359648759296,-16321.721878785645,1460.253699969596,2,A
1781598934666,420.4346107575269,-15418.042315764304,1460.253699969596,2,A
1781598934688,480.52953940785716,-16377.950829373642,1556.8870566490555,2,A
1781598934708,624.7573681686498,-16771.553483489603,1581.0453958189205,2,A
1781598934730,1373.940812009434,-16803.68431239703,542.23681151473,2,A
1781598934752,728.9219111625557,-16365.901768533357,1299.19810550383,2,A
1781598934774,748.9535540459991,-16193.198563155944,1254.9078170257444,2,A
1781598934795,584.694082401763,-16490.40873054963,1395.8314621832897,2,A
1781598934816,612.7383824385838,-16422.130719121353,1210.6175285476588,2,A
1781598934839,684.8522968189801,-16305.656464331934,1295.171715642186,2,A
1781598934860,396.3966392973948,-16498.441437776484,1657.5468031901594,2,A
1781598934881,728.9219111625557,-16634.997460633043,1448.1745303846635,2,A
1781598934903,536.6181394814988,-16337.787293239358,1540.781497202479,2,A
1781598934924,304.25108203355506,-16173.116795088803,1738.0746004230423,2,A
1781598934946,272.20045342004556,-16189.182209542516,1661.5731930518034,2,A
1781598934968,716.9029254324896,-16365.901768533357,1266.986986610677,2,A
1781598934989,901.1940399601691,-16482.376023322773,1081.773052975046,2,A
1781598935012,736.934568315933,-16389.999890213927,1379.725902736713,2,A
1781598935033,164.02958184945106,-16221.313038449942,1685.7315322216682,2,A
1781598935054,640.7826824754046,-16084.757015593383,1347.5147838435598,2,A
1781598935076,1097.5041402179147,-16470.326962482486,977.0869165722982,2,A
1781598935098,941.257325727056,-16554.67038836448,1428.0425810764427,2,A
1781598935119,813.054811273018,-16626.964753406188,1617.2829045737178,2,A
1781598935140,500.5611822913006,-16253.443867357368,1685.7315322216682,2,A
1781598935162,680.8459682422914,-16245.41116013051,1291.1453257805417,2,A
1781598935183,1029.396554414207,-16361.885414919929,1085.79944283669,2,A
1781598935205,420.4346107575269,-16639.01381424647,1637.4148538819386,2,A
1781598935227,432.45359648759296,-16602.866631725617,1709.8898713915332,2,A
1781598935248,869.1434113466596,-16313.68917155879,1266.986986610677,2,A
1781598935270,764.9788683527538,-16225.32939206337,1432.068970938087,2,A
1781598935291,724.915582585867,-16478.359669709345,1613.2565147120736,2,A
1781598935312,768.9851969294425,-16454.261548028775,1448.1745303846635,2,A
1781598935334,1045.4218687209618,-16229.345745676797,1218.670308270947,2,A
1781598935356,608.7320538618951,-16345.820000466216,1424.0161912147987,2,A
1781598935378,668.8269825122254,-16470.326962482486,1484.4120391394608,2,A
1781598935399,728.9219111625557,-16558.68674197791,1387.7786824600014,2,A
1781598935420,865.1370827699709,-16430.16342634821,1142.1689008997082,2,A
1781598935442,704.8839397024235,-16209.263977609657,1283.0925460572535,2,A
1781598935464,552.6434537882535,-16454.261548028775,1661.5731930518034,2,A
1781598935486,684.8522968189801,-16430.16342634821,1436.095360799731,2,A
1781598935506,821.0674684263954,-16253.443867357368,1190.485579239438,2,A
1781598935529,772.9915255061312,-16369.918122146784,1327.382834535339,2,A
1781598935550,628.7636967453385,-16450.245194415347,1601.1773451271413,2,A
1781598935572,548.6371252115648,-16474.343316095918,1641.4412437435826,2,A
1781598935594,957.2826400338107,-16261.476574584223,1210.6175285476588,2,A
1781598935614,881.1623970767257,-16293.60740349165,1303.2244953654742,2,A
1781598935636,412.42195360414956,-16365.901768533357,1524.6759377559024,2,A
1781598935658,576.6814252483856,-16221.313038449942,1556.8870566490555,2,A
1781598935679,584.694082401763,-16422.130719121353,1363.6203432901364,2,A
1781598935701,628.7636967453385,-16398.032597440782,1488.438429001105,2,A
1781598935722,845.1054398865275,-16337.787293239358,1198.5383589627263,2,A
1781598935744,776.9978540828199,-16381.96718298707,1363.6203432901364,2,A
1781598935766,961.2889686104994,-16389.999890213927,1190.485579239438,2,A
1781598935787,877.156068500037,-16402.04895105421,1367.6467331517806,2,A
1781598935808,809.0484826963294,-16482.376023322773,1456.2273101079518,2,A
1781598935830,748.9535540459991,-16269.50928181108,1339.4620041202716,2,A
1781598935851,797.0294969662633,-16594.833924498762,1250.8814271641002,2,A
1781598935874,1081.47882591116,-16261.476574584223,1085.79944283669,2,A
1781598935894,620.7510395919612,-16466.31060886906,1484.4120391394608,2,A
1781598935917,504.5675108679893,-16373.934475760212,1738.0746004230423,2,A
1781598935938,668.8269825122254,-16257.460220970795,1436.095360799731,2,A
1781598935959,748.9535540459991,-16333.77093962593,1343.4883939819156,2,A
1781598935981,708.8902682791122,-16329.754586012503,1581.0453958189205,2,A
1781598936002,596.713068131829,-16349.836354079644,1653.5204133285151,2,A
1781598936024,612.7383824385838,-16377.950829373642,1448.1745303846635,2,A
1781598936045,949.2699828804333,-16478.359669709345,1295.171715642186,2,A
1781598936067,648.795339628782,-16149.018673408234,1391.8050723216454,2,A
1781598936088,312.2637391869324,-16112.87149088738,1637.4148538819386,2,A
1781598936110,472.5168822544798,-16313.68917155879,1460.253699969596,2,A
1781598936132,584.694082401763,-16711.30817928818,1391.8050723216454,2,A
1781598936154,576.6814252483856,-16389.999890213927,1456.2273101079518,2,A
1781598936175,324.28272491699846,-16289.591049878221,1862.8926861340108,2,A
1781598936197,540.6244680581875,-16454.261548028775,1492.464818862749,2,A
1781598936218,572.6750966716969,-16357.869061306501,1395.8314621832897,2,A
1781598936240,208.0991961930266,-16418.11436550792,1774.3121091778396,2,A
1781598936261,776.9978540828199,-16369.918122146784,1323.356444673695,2,A
1781598936283,572.6750966716969,-16478.359669709345,1460.253699969596,2,A
1781598936305,1133.5610974081128,-16281.558342651364,864.348000446262,2,A
1781598936326,1161.6053974449337,-16337.787293239358,952.9285774024332,2,A
1781598936348,131.9789532359416,-16454.261548028775,1842.7607368257902,2,A
1781598936369,220.11818192309266,-16530.57226668391,1681.7051423600242,2,A
1781598936391,412.42195360414956,-16406.065304667638,1496.4912087243933,2,A
1781598936412,356.33335353050796,-16193.198563155944,1770.2857193161954,2,A
1781598936434,720.9092540091783,-16313.68917155879,1415.9634114915104,2,A
1781598936455,1033.4028829908957,-16237.378452903655,1266.986986610677,2,A
1781598936478,885.1687256534144,-16353.852707693071,1355.567563566848,2,A
1781598936499,1065.4535116044053,-16434.179779961636,1395.8314621832897,2,A
1781598936520,704.8839397024235,-16394.016243827355,1516.6231580326141,2,A
1781598936542,1017.377568684141,-16317.705525172218,1138.142511038064,2,A
1781598936563,1169.6180545983111,-16285.574696264792,1118.0105617298434,2,A
1781598936585,829.0801255797728,-16381.96718298707,1415.9634114915104,2,A
1781598936606,837.0927827331502,-16418.11436550792,1448.1745303846635,2,A
1781598936628,789.0168398128859,-16458.277901642203,1528.7023276175464,2,A
1781598936649,1157.599068868245,-16333.77093962593,1025.403594912028,2,A
1781598936672,1217.6939975185753,-16590.817570885334,1037.4827644969603,2,A
1781598936693,580.6877538250743,-16398.032597440782,1500.5175985860374,2,A
1781598936715,1754.542026794859,-16345.820000466216,904.6118990627034,2,A
1781598936736,1373.940812009434,-16293.60740349165,1057.614713805181,2,A
1781598936757,1526.181297923604,-16389.999890213927,1073.7202732517576,2,A
1781598936779,1790.5989839850572,-16550.654034751053,667.0548972256986,2,A
1781598936800,1678.421783837774,-16418.11436550792,816.0313221065321,2,A
1781598936823,1466.0863692732737,-16201.231270382801,1069.6938833901136,2,A
1781598936844,1317.8522119357924,-16273.525635424508,1069.6938833901136,2,A
1781598936867,1622.3331837641324,-16570.73580281819,912.6646787859917,2,A
1781598936888,1073.4661687577825,-16622.94839979276,1311.2772750887625,2,A
1781598936910,156.0169246960737,-16450.245194415347,1899.1301948888083,2,A
1781598936932,965.2952971871881,-16064.675247526242,1053.588323943537,2,A
1781598936954,700.8776111257349,-16317.705525172218,1508.5703783093259,2,A
1781598936975,1105.5167973712921,-16000.413589711392,1174.3800197928615,2,A
1781598936996,1285.8015833222828,-16534.588620297338,1158.2744603462847,2,A
1781598937018,1686.4344409911514,-16482.376023322773,799.9257626599556,2,A
1781598937040,1658.3901409543307,-16313.68917155879,767.7146437668024,2,A
1781598937061,1422.0167549296982,-16217.296684836514,948.9021875407891,2,A
1781598937082,805.0421541196407,-16522.539559457055,1536.755107340835,2,A
1781598937104,1470.0926978499624,-16241.394806517083,856.2952207229737,2,A
1781598937126,1582.2698979972456,-16233.362099290227,803.9521525215997,2,A
1781598937147,1686.4344409911514,-16402.04895105421,965.0077469873656,2,A
1781598937169,1498.1369978867833,-16703.275472061323,1029.429984773672,2,A
1781598937191,1518.1686407702266,-16185.165855929088,820.0577119681762,2,A
1781598937212,1057.440854451028,-16217.296684836514,1303.2244953654742,2,A
1781598937234,1337.8838548192357,-16313.68917155879,965.0077469873656,2,A
1781598937256,1710.4724124512836,-16450.245194415347,803.9521525215997,2,A
1781598937278,1706.466083874595,-16197.214916769373,755.6354741818699,2,A
1781598937299,1385.9597977395001,-16241.394806517083,1001.245255742163,2,A
1781598937320,1189.6496974817544,-16381.96718298707,1150.2216806229965,2,A
1781598937343,1726.4977267580382,-16558.68674197791,739.5299147352933,2,A
1781598937364,1810.6306268685007,-16301.640110718505,650.9493377791221,2,A
1781598937385,1614.320526610755,-16566.719449204764,751.6090843202257,2,A
1781598937406,1882.744541248897,-16273.525635424508,602.6326594393922,2,A
1781598937428,1409.997769199632,-16341.803646852788,1013.3244253270955,2,A
1781598937450,1450.061054966519,-16426.14707273478,981.1133064339423,2,A
1781598937470,1401.9851120462547,-16450.245194415347,1057.614713805181,2,A
1781598937492,1490.124340733406,-16285.574696264792,900.5855092010593,2,A
1781598937514,1694.4470981445288,-16406.065304667638,799.9257626599556,2,A
1781598937535,1566.2445836904908,-16305.656464331934,743.5563045969375,2,A
1781598937557,1718.4850696046608,-16398.032597440782,719.3979654270726,2,A
1781598937579,1454.0673835432076,-16414.098011894494,1017.3508151887396,2,A
1781598937601,1205.6750117885092,-16385.9835366005,1222.696698132591,2,A
1781598937622,1694.4470981445288,-15871.890274081688,614.7118290243247,2,A
1781598937643,1494.1306693100946,-16398.032597440782,876.4271700311944,2,A
1781598937665,1618.3268551874437,-16566.719449204764,860.3216105846178,2,A
1781598937687,1414.0040977763208,-16639.01381424647,1029.429984773672,2,A
1781598937708,1393.9724548928773,-16233.362099290227,868.3743903079061,2,A
1781598937730,1626.339512340821,-16068.69160113967,916.6910686476359,2,A
1781598937751,1470.0926978499624,-16297.623757105077,956.9549672640774,2,A
1781598937773,1890.7571984022743,-16586.801217271906,671.0812870873428,2,A
1781598937795,1630.3458409175098,-16542.621327524193,856.2952207229737,2,A
1781598937816,1385.9597977395001,-16369.918122146784,1037.4827644969603,2,A
1781598937837,1490.124340733406,-16325.738232399075,880.4535598928385,2,A
1781598937859,1698.4534267212175,-16470.326962482486,505.9993027599327,2,A
1781598937880,1582.2698979972456,-16418.11436550792,759.661864043514,2,A
1781598937902,1642.364826647576,-16482.376023322773,598.6062695777481,2,A
1781598937924,1201.6686832118205,-16289.591049878221,1113.9841718681992,2,A
1781598937946,1381.9534691628114,-16249.427513743938,924.7438483709242,2,A
1781598937968,1862.7128983654536,-16486.3923769362,514.0520824832209,2,A
1781598937989,2034.9850271630671,-16687.210057607608,481.8409635900678,2,A
1781598938010,1742.523041064793,-16562.703095591336,836.1632714147529,2,A
1781598938032,1478.1053550033398,-16233.362099290227,876.4271700311944,2,A
1781598938053,1145.580083138179,-16149.018673408234,993.1924760188747,2,A
1781598938076,1590.282555150623,-16333.77093962593,703.292405980496,2,A
1781598938097,1882.744541248897,-16839.831494917882,570.421540546239,2,A
1781598938118,1786.5926554083685,-17141.058015924995,1138.142511038064,2,A
1781598938140,1490.124340733406,-16570.73580281819,912.6646787859917,2,A
1781598938162,1542.2066122303588,-16205.247623996229,578.4743202695273,2,A
1781598938183,1638.3584980708872,-16313.68917155879,622.764608747613,2,A
1781598938205,1618.3268551874437,-16353.852707693071,699.2660161188518,2,A
1781598938226,1594.2888837273117,-16337.787293239358,663.0285073640545,2,A
1781598938249,1345.896511972613,-16273.525635424508,912.6646787859917,2,A
1781598938270,1646.3711552242646,-16253.443867357368,497.9465230366444,2,A
1781598938290,1542.2066122303588,-16458.277901642203,755.6354741818699,2,A
1781598938313,1385.9597977395001,-16602.866631725617,956.9549672640774,2,A
1781598938335,1385.9597977395001,-16321.721878785645,687.1868465339194,2,A
1781598938355,1682.4281124144627,-16197.214916769373,336.89092857087843,2,A
1781598938377,1638.3584980708872,-16381.96718298707,510.0256926215768,2,A
1781598938399,961.2889686104994,-16663.11193592704,1170.3536299312173,2,A
1781598938421,1566.2445836904908,-16012.462650551675,610.6854391626806,2,A
1781598938442,1778.579998254991,-16470.326962482486,385.2076069106082,2,A
1781598938463,1746.5293696414817,-16546.637681137625,739.5299147352933,2,A
1781598938486,1566.2445836904908,-16365.901768533357,775.7674234900907,2,A
1781598938507,1426.023083506387,-16301.640110718505,860.3216105846178,2,A
1781598938528,1762.5546839482365,-16381.96718298707,606.6590493010364,2,A
1781598938550,1486.1180121567172,-16522.539559457055,775.7674234900907,2,A
1781598938572,1766.5610125249252,-16281.558342651364,735.5035248736492,2,A
1781598938593,1237.7256404020186,-16217.296684836514,860.3216105846178,2,A
1781598938615,1614.320526610755,-16377.950829373642,534.1840317914417,2,A
1781598938637,1602.3015408806891,-16558.68674197791,743.5563045969375,2,A
1781598938659,1470.0926978499624,-16542.621327524193,960.9813571257215,2,A
1781598938680,1630.3458409175098,-20382.255381961546,2201.109434512119,2,A
1781598938701,1486.1180121567172,-16671.144643153897,888.5063396161269,2,A
1781598938723,1758.5483553715478,-15719.268836771418,719.3979654270726,2,A
1781598938744,1490.124340733406,-16321.721878785645,816.0313221065321,2,A
1781598938767,1414.0040977763208,-16201.231270382801,832.1368815531088,2,A
1781598938788,1073.4661687577825,-16189.182209542516,1041.5091543586045,2,A
1781598938810,1349.9028405493018,-16317.705525172218,844.2160511380412,2,A
1781598938831,1369.9344834327453,-16502.457791389912,928.7702382325683,2,A
1781598938852,1365.9281548560566,-16498.441437776484,916.6910686476359,2,A
1781598938874,1614.320526610755,-16373.934475760212,614.7118290243247,2,A
1781598938895,1614.320526610755,-16301.640110718505,663.0285073640545,2,A
1781598938917,1309.839554782415,-16430.16342634821,1053.588323943537,2,A
1781598938939,1401.9851120462547,-16570.73580281819,973.0605267106539,2,A
1781598938960,1225.7066546719527,-16377.950829373642,993.1924760188747,2,A
1781598938982,1566.2445836904908,-16253.443867357368,642.8965580558338,2,A
1781598939004,1430.0294120830756,-16305.656464331934,880.4535598928385,2,A
1781598939026,1009.3649115307636,-16566.719449204764,1182.4327995161498,2,A
1781598939047,1309.839554782415,-16325.738232399075,759.661864043514,2,A
1781598939068,1405.9914406229434,-16193.198563155944,614.7118290243247,2,A
1781598939090,1578.263569420557,-16385.9835366005,832.1368815531088,2,A
1781598939112,1105.5167973712921,-16643.0301678599,1234.7758677175236,2,A
1781598939133,1221.700326095264,-16398.032597440782,1138.142511038064,2,A
1781598939155,1450.061054966519,-16193.198563155944,759.661864043514,2,A
1781598939176,1446.0547263898302,-16442.21248718849,743.5563045969375,2,A
1781598939197,1434.0357406597643,-16550.654034751053,892.532729477771,2,A
1781598939220,1101.5104687946034,-16365.901768533357,1230.7494778558794,2,A
1781598939240,1345.896511972613,-16040.577125845673,743.5563045969375,2,A
1781598939263,1802.6179697151233,-16470.326962482486,429.49789538869385,2,A
1781598939285,1377.9471405861227,-16691.22641122104,1037.4827644969603,2,A
1781598939306,1321.858540512481,-16442.21248718849,1109.957782006555,2,A
1781598939328,1253.7509547087734,-16237.378452903655,973.0605267106539,2,A
1781598939350,1405.9914406229434,-16128.936905341094,791.8729829366672,2,A
1781598939371,1538.20028365367,-16647.046521473327,981.1133064339423,2,A
1781598939392,1345.896511972613,-16639.01381424647,1081.773052975046,2,A
1781598939414,1369.9344834327453,-16225.32939206337,743.5563045969375,2,A
1781598939436,1097.5041402179147,-16132.953258954522,928.7702382325683,2,A
1781598939457,1209.681340365198,-16353.852707693071,920.71745850928,2,A
1781598939479,1161.6053974449337,-16305.656464331934,944.875797679145,2,A
1781598939500,1329.8711976658585,-16373.934475760212,928.7702382325683,2,A
1781598939522,1442.0483978131417,-16502.457791389912,904.6118990627034,2,A
1781598939545,1357.9154977026792,-16458.277901642203,1041.5091543586045,2,A
1781598939565,1193.656026058443,-16305.656464331934,1234.7758677175236,2,A
1781598939587,1153.5927402915563,-16289.591049878221,944.875797679145,2,A
1781598939608,1365.9281548560566,-16398.032597440782,812.004932244888,2,A
1781598939630,1301.8268976290376,-16506.47414500334,1130.0897313147757,2,A
1781598939652,1017.377568684141,-16606.882985339045,1166.327240069573,2,A
1781598939674,1133.5610974081128,-16410.081658281066,1057.614713805181,2,A
1781598939695,1301.8268976290376,-16257.460220970795,711.3451857037843,2,A
1781598939716,1277.7889261689056,-16285.574696264792,787.8465930750231,2,A
1781598939738,1313.8458833591037,-16361.885414919929,876.4271700311944,2,A
1781598939760,1434.0357406597643,-16357.869061306501,880.4535598928385,2,A
1781598939781,1446.0547263898302,-16928.1912744133,948.9021875407891,2,A
1781598939802,2680.0039280099454,-18016.623103652342,244.283961753063,2,A
1781598939824,1974.8900985127368,-16032.544418618816,429.49789538869385,2,A
1781598939846,476.5232108311685,-14205.10352450899,654.9757276407662,2,A
1781598939867,768.9851969294425,-15879.922981308546,1250.8814271641002,2,A
1781598939889,1049.4281972976505,-16076.724308366527,1331.4092243969833,2,A
1781598939910,1097.5041402179147,-16530.57226668391,1230.7494778558794,2,A
1781598939932,1253.7509547087734,-16353.852707693071,1093.8522225599784,2,A
1781598939954,1209.681340365198,-16534.588620297338,1158.2744603462847,2,A
1781598939975,1221.700326095264,-16502.457791389912,1162.300850207929,2,A
1781598939997,1093.497811641226,-16462.29425525563,1142.1689008997082,2,A
1781598940018,1049.4281972976505,-16289.591049878221,1013.3244253270955,2,A
1781598940040,736.934568315933,-16293.60740349165,1266.986986610677,2,A
1781598940061,861.1307541932823,-16418.11436550792,1238.8022575791679,2,A
1781598940084,1077.4724973344712,-16410.081658281066,1186.4591893777938,2,A
1781598940105,1213.6876689418866,-16562.703095591336,1182.4327995161498,2,A
1781598940126,1085.4851544878486,-16414.098011894494,1206.5911386860146,2,A
1781598940148,1029.396554414207,-16293.60740349165,1045.5355442202485,2,A
1781598940169,965.2952971871881,-16345.820000466216,1077.7466631134018,2,A
1781598940191,973.3079543405654,-16618.932046179332,1198.5383589627263,2,A
1781598940212,881.1623970767257,-16462.29425525563,1126.0633414531317,2,A
1781598940234,957.2826400338107,-16261.476574584223,1045.5355442202485,2,A
1781598940255,1073.4661687577825,-16217.296684836514,1081.773052975046,2,A
1781598940276,957.2826400338107,-16406.065304667638,1198.5383589627263,2,A
1781598940298,1109.5231259479808,-16663.11193592704,1097.8786124216226,2,A
1781598940320,1057.440854451028,-16249.427513743938,1081.773052975046,2,A
1781598940340,893.1813828067917,-16281.558342651364,1242.828647440812,2,A
1781598940363,997.3459258006976,-16446.22884080192,1174.3800197928615,2,A
1781598940384,1253.7509547087734,-16458.277901642203,884.4799497544827,2,A
1781598940405,965.2952971871881,-16353.852707693071,1146.1952907613525,2,A
1781598940428,889.1750542301031,-16353.852707693071,1162.300850207929,2,A
1781598940449,953.276311457122,-16402.04895105421,1166.327240069573,2,A
1781598940470,1061.4471830277166,-16574.75215643162,1218.670308270947,2,A
1781598940492,989.3332686473202,-16394.016243827355,1069.6938833901136,2,A
1781598940514,857.1244256165936,-16526.555913070482,1331.4092243969833,2,A
1781598940535,1189.6496974817544,-16325.738232399075,981.1133064339423,2,A
1781598940557,1101.5104687946034,-16626.964753406188,1081.773052975046,2,A
1781598940579,881.1623970767257,-16361.885414919929,1182.4327995161498,2,A
1781598940601,1017.377568684141,-16321.721878785645,1049.5619340818928,2,A
1781598940622,1065.4535116044053,-16297.623757105077,1029.429984773672,2,A
1781598940643,901.1940399601691,-16365.901768533357,1275.0397663339652,2,A
1781598940665,925.2320114203012,-16349.836354079644,1122.0369515914874,2,A
1781598940686,1105.5167973712921,-16454.261548028775,1081.773052975046,2,A
1781598940708,1137.5674259848015,-16630.981107019616,1077.7466631134018,2,A
1781598940730,1077.4724973344712,-16353.852707693071,1166.327240069573,2,A
1781598940751,1033.4028829908957,-16337.787293239358,1109.957782006555,2,A
1781598940773,873.1497399233483,-16313.68917155879,1182.4327995161498,2,A
1781598940795,881.1623970767257,-16225.32939206337,1174.3800197928615,2,A
1781598940815,953.276311457122,-16530.57226668391,1113.9841718681992,2,A
1781598940838,1101.5104687946034,-16550.654034751053,973.0605267106539,2,A
1781598940859,1213.6876689418866,-16277.541989037936,993.1924760188747,2,A
1781598940881,981.3206114939428,-16357.869061306501,1246.8550373024561,2,A
1781598940902,1177.6307117516883,-16293.60740349165,1113.9841718681992,2,A
1781598940924,1093.497811641226,-16249.427513743938,1162.300850207929,2,A
1781598940946,1013.3712401074523,-16285.574696264792,1101.9050022832666,2,A
1781598940967,1045.4218687209618,-16542.621327524193,1122.0369515914874,2,A
1781598940988,1205.6750117885092,-16634.997460633043,1029.429984773672,2,A
1781598941010,905.2003685368578,-16333.77093962593,1295.171715642186,2,A
1781598941032,809.0484826963294,-16173.116795088803,1424.0161912147987,2,A
1781598941053,953.276311457122,-16193.198563155944,1230.7494778558794,2,A
1781598941075,1073.4661687577825,-16723.357240128462,1093.8522225599784,2,A
1781598941097,1349.9028405493018,-16474.343316095918,936.8230179558566,2,A
1781598941118,1177.6307117516883,-16410.081658281066,1005.2716456038072,2,A
1781598941139,1001.3522543773862,-16410.081658281066,1142.1689008997082,2,A
1781598941161,1005.3585829540749,-16518.523205843627,973.0605267106539,2,A
1781598941183,957.2826400338107,-16313.68917155879,1097.8786124216226,2,A
1781598941204,1009.3649115307636,-16269.50928181108,1210.6175285476588,2,A
1781598941226,1013.3712401074523,-16558.68674197791,1154.2480704846407,2,A
1781598941247,1153.5927402915563,-16381.96718298707,1021.3772050503837,2,A
1781598941269,1037.4092115675844,-16369.918122146784,1186.4591893777938,2,A
1781598941290,809.0484826963294,-16510.49049861677,1432.068970938087,2,A
1781598941311,1069.4598401810938,-16410.081658281066,1001.245255742163,2,A
1781598941334,1101.5104687946034,-16450.245194415347,985.1396962955864,2,A
1781598941355,905.2003685368578,-16337.787293239358,1258.9342068873884,2,A
1781598941376,941.257325727056,-16534.588620297338,1174.3800197928615,2,A
1781598941398,873.1497399233483,-16410.081658281066,1299.19810550383,2,A
1781598941420,965.2952971871881,-16233.362099290227,1105.931392144911,2,A
1781598941441,1125.5484402547354,-16373.934475760212,1126.0633414531317,2,A
1781598941462,1013.3712401074523,-16414.098011894494,1230.7494778558794,2,A
1781598941484,873.1497399233483,-16482.376023322773,1335.4356142586273,2,A
1781598941506,905.2003685368578,-16273.525635424508,1202.5647488243706,2,A
1781598941527,901.1940399601691,-16341.803646852788,1283.0925460572535,2,A
1781598941550,993.3395972240089,-16558.68674197791,1170.3536299312173,2,A
1781598941571,873.1497399233483,-16502.457791389912,1154.2480704846407,2,A
1781598941592,921.2256828436125,-16233.362099290227,1150.2216806229965,2,A
1781598941613,584.694082401763,-16092.78972282024,1250.8814271641002,2,A
1781598941635,644.7890110520933,-16522.539559457055,1395.8314621832897,2,A
1781598941657,1109.5231259479808,-16470.326962482486,1085.79944283669,2,A
1781598941677,1181.637040328377,-16394.016243827355,904.6118990627034,2,A
1781598941700,957.2826400338107,-16333.77093962593,1198.5383589627263,2,A
1781598941722,949.2699828804333,-16209.263977609657,1126.0633414531317,2,A
1781598941743,1081.47882591116,-16438.196133575064,940.8494078175007,2,A
1781598941764,1073.4661687577825,-16498.441437776484,1122.0369515914874,2,A
1781598941785,1041.415540144273,-16394.016243827355,1158.2744603462847,2,A
1781598941808,1057.440854451028,-16389.999890213927,1093.8522225599784,2,A
1781598941829,1017.377568684141,-16389.999890213927,1246.8550373024561,2,A
1781598941851,913.2130256902352,-16458.277901642203,1262.9605967490327,2,A
1781598941873,965.2952971871881,-16313.68917155879,1089.8258326983344,2,A
1781598941894,1089.4914830645373,-16369.918122146784,1013.3244253270955,2,A
1781598941915,989.3332686473202,-16325.738232399075,1101.9050022832666,2,A
1781598941938,825.0737970030841,-16550.654034751053,1391.8050723216454,2,A
1781598941959,1173.6243831749998,-16377.950829373642,840.189661276397,2,A
1781598941980,1157.599068868245,-16402.04895105421,985.1396962955864,2,A
1781598942002,873.1497399233483,-16136.96961256795,1210.6175285476588,2,A
1781598942024,809.0484826963294,-16297.623757105077,1355.567563566848,2,A
1781598942045,933.2446685736786,-16313.68917155879,1105.931392144911,2,A
1781598942066,1073.4661687577825,-16422.130719121353,1081.773052975046,2,A
1781598942088,977.3142829172541,-16614.9156925659,1069.6938833901136,2,A
1781598942109,612.7383824385838,-16377.950829373642,1548.8342769257672,2,A
1781598942131,845.1054398865275,-16185.165855929088,1037.4827644969603,2,A
1781598942153,1149.5864117148676,-16337.787293239358,920.71745850928,2,A
1781598942174,817.0611398497067,-16578.768510045047,1440.1217506613752,2,A
1781598942196,764.9788683527538,-16486.3923769362,1359.5939534284923,2,A
1781598942218,1089.4914830645373,-16329.754586012503,1069.6938833901136,2,A
1781598942239,877.156068500037,-16293.60740349165,1194.511969101082,2,A
1781598942260,1077.4724973344712,-16406.065304667638,1182.4327995161498,2,A
1781598942282,752.9598826226878,-16285.574696264792,1363.6203432901364,2,A
1781598942304,1069.4598401810938,-16229.345745676797,1065.6674935284693,2,A
1781598942325,1001.3522543773862,-16301.640110718505,1122.0369515914874,2,A
1781598942346,1013.3712401074523,-16482.376023322773,1198.5383589627263,2,A
1781598942368,873.1497399233483,-16514.5068522302,1391.8050723216454,2,A
1781598942389,1109.5231259479808,-16145.002319794807,824.0841018298205,2,A
1781598942411,961.2889686104994,-16297.623757105077,1057.614713805181,2,A
1781598942432,732.9282397392443,-16418.11436550792,1254.9078170257444,2,A
1781598942454,941.257325727056,-16610.899338952473,1303.2244953654742,2,A
1781598942476,1217.6939975185753,-16381.96718298707,880.4535598928385,2,A
1781598942497,1149.5864117148676,-16389.999890213927,1001.245255742163,2,A
1781598942519,925.2320114203012,-16361.885414919929,1347.5147838435598,2,A
1781598942541,869.1434113466596,-16329.754586012503,1250.8814271641002,2,A
1781598942562,1105.5167973712921,-16225.32939206337,973.0605267106539,2,A
1781598942583,985.3269400706315,-16506.47414500334,1226.7230879942354,2,A
1781598942605,885.1687256534144,-16586.801217271906,1154.2480704846407,2,A
1781598942628,861.1307541932823,-16373.934475760212,1206.5911386860146,2,A
1781598942650,997.3459258006976,-16229.345745676797,1021.3772050503837,2,A
1781598942670,1069.4598401810938,-16381.96718298707,1178.4064096545055,2,A
1781598942691,776.9978540828199,-16381.96718298707,1238.8022575791679,2,A
1781598942713,833.0864541564615,-16293.60740349165,1428.0425810764427,2,A
1781598942736,933.2446685736786,-16398.032597440782,1113.9841718681992,2,A
1781598942758,1233.71931182533,-16446.22884080192,892.532729477771,2,A
1781598942778,973.3079543405654,-16570.73580281819,1190.485579239438,2,A
1781598942801,893.1813828067917,-16462.29425525563,1178.4064096545055,2,A
1781598942822,716.9029254324896,-16229.345745676797,1291.1453257805417,2,A
1781598942844,985.3269400706315,-16305.656464331934,1081.773052975046,2,A
1781598942865,1049.4281972976505,-16478.359669709345,977.0869165722982,2,A
1781598942887,985.3269400706315,-16426.14707273478,1154.2480704846407,2,A
1781598942908,957.2826400338107,-16297.623757105077,1158.2744603462847,2,A
1781598942930,841.0991113098388,-16309.672817945362,1307.2508852271183,2,A
1781598942952,1081.47882591116,-16490.40873054963,1226.7230879942354,2,A
1781598942974,953.276311457122,-16442.21248718849,1315.3036649504065,2,A
1781598942995,1069.4598401810938,-16269.50928181108,1186.4591893777938,2,A
1781598943016,937.2509971503673,-16249.427513743938,1299.19810550383,2,A
1781598943038,841.0991113098388,-16466.31060886906,1258.9342068873884,2,A
1781598943060,1121.5421116780467,-16518.523205843627,1122.0369515914874,2,A
1781598943082,1029.396554414207,-16173.116795088803,1041.5091543586045,2,A
1781598943102,1045.4218687209618,-16345.820000466216,1077.7466631134018,2,A
1781598943124,764.9788683527538,-16514.5068522302,1424.0161912147987,2,A
1781598943145,825.0737970030841,-16369.918122146784,1315.3036649504065,2,A
1781598943168,1121.5421116780467,-16309.672817945362,1138.142511038064,2,A
1781598943189,1037.4092115675844,-16514.5068522302,1134.11612117642,2,A
1781598943210,853.1180970399049,-16598.85027811219,1379.725902736713,2,A
1781598943232,572.6750966716969,-16438.196133575064,1524.6759377559024,2,A
1781598943255,748.9535540459991,-16414.098011894494,1363.6203432901364,2,A
1781598943275,997.3459258006976,-16309.672817945362,1113.9841718681992,2,A
1781598943297,825.0737970030841,-16454.261548028775,1323.356444673695,2,A
1781598943318,997.3459258006976,-16582.78486365848,1371.6731230134246,2,A
1781598943340,1145.580083138179,-16337.787293239358,1134.11612117642,2,A
1781598943360,1029.396554414207,-16281.558342651364,1242.828647440812,2,A
1781598943383,1049.4281972976505,-16578.768510045047,1347.5147838435598,2,A
1781598943405,768.9851969294425,-16562.703095591336,1532.7287174791907,2,A
1781598943426,869.1434113466596,-16301.640110718505,1194.511969101082,2,A
1781598943448,957.2826400338107,-16273.525635424508,965.0077469873656,2,A
1781598943469,957.2826400338107,-16389.999890213927,1158.2744603462847,2,A
1781598943490,961.2889686104994,-16558.68674197791,1146.1952907613525,2,A
1781598943512,785.0105112361972,-16257.460220970795,1403.884241906578,2,A
1781598943534,981.3206114939428,-16269.50928181108,1218.670308270947,2,A
1781598943555,945.2636543037447,-16345.820000466216,1315.3036649504065,2,A
1781598943577,1105.5167973712921,-16265.492928197651,1262.9605967490327,2,A
1781598943598,937.2509971503673,-16402.04895105421,1275.0397663339652,2,A
1781598943620,985.3269400706315,-16361.885414919929,1190.485579239438,2,A
1781598943642,869.1434113466596,-16361.885414919929,1218.670308270947,2,A
1781598943663,1017.377568684141,-16273.525635424508,1150.2216806229965,2,A
1781598943685,801.035825542952,-16474.343316095918,1315.3036649504065,2,A
1781598943706,1005.3585829540749,-16514.5068522302,1218.670308270947,2,A
1781598943728,768.9851969294425,-16305.656464331934,1403.884241906578,2,A
1781598943750,881.1623970767257,-16422.130719121353,1275.0397663339652,2,A
1781598943771,981.3206114939428,-16558.68674197791,1077.7466631134018,2,A
1781598943792,1157.599068868245,-16297.623757105077,872.4007801695502,2,A
1781598943814,989.3332686473202,-16281.558342651364,1178.4064096545055,2,A
1781598943835,841.0991113098388,-16329.754586012503,1419.9898013531545,2,A
1781598943857,933.2446685736786,-16530.57226668391,1279.0661561956092,2,A
1781598943879,768.9851969294425,-16317.705525172218,1399.8578520449337,2,A
1781598943900,989.3332686473202,-16450.245194415347,1198.5383589627263,2,A
1781598943922,861.1307541932823,-16389.999890213927,1295.171715642186,2,A
1781598943944,1081.47882591116,-16402.04895105421,1089.8258326983344,2,A
1781598943966,917.2193542669239,-16406.065304667638,1258.9342068873884,2,A
1781598943987,740.9408968926217,-16389.999890213927,1363.6203432901364,2,A
1781598944008,756.9662111993764,-16426.14707273478,1411.9370216298662,2,A
1781598944030,793.0231683895746,-16426.14707273478,1415.9634114915104,2,A
1781598944051,885.1687256534144,-16534.588620297338,1222.696698132591,2,A
1781598944072,1013.3712401074523,-16410.081658281066,1182.4327995161498,2,A
1781598944094,628.7636967453385,-16297.623757105077,1444.1481405230195,2,A
1781598944116,833.0864541564615,-16241.394806517083,1130.0897313147757,2,A
1781598944138,893.1813828067917,-16647.046521473327,1238.8022575791679,2,A
1781598944159,881.1623970767257,-16313.68917155879,1262.9605967490327,2,A
1781598944180,736.934568315933,-16177.13314870223,1343.4883939819156,2,A
1781598944202,913.2130256902352,-16418.11436550792,1347.5147838435598,2,A
1781598944223,905.2003685368578,-16381.96718298707,1170.3536299312173,2,A
1781598944245,740.9408968926217,-16197.214916769373,1266.986986610677,2,A
1781598944266,873.1497399233483,-16538.604973910766,1166.327240069573,2,A
1781598944289,965.2952971871881,-16590.817570885334,1283.0925460572535,2,A
1781598944309,841.0991113098388,-16185.165855929088,1206.5911386860146,2,A
1781598944331,760.9725397760651,-16341.803646852788,1287.1189359188975,2,A
1781598944353,925.2320114203012,-16337.787293239358,1319.3300548120508,2,A
1781598944374,853.1180970399049,-16365.901768533357,1367.6467331517806,2,A
1781598944396,821.0674684263954,-16385.9835366005,1335.4356142586273,2,A
1781598944417,881.1623970767257,-16333.77093962593,1287.1189359188975,2,A
1781598944439,945.2636543037447,-16538.604973910766,1182.4327995161498,2,A
1781598944461,909.2066971135465,-16406.065304667638,1109.957782006555,2,A
1781598944482,945.2636543037447,-16526.555913070482,1202.5647488243706,2,A
1781598944502,873.1497399233483,-16446.22884080192,1323.356444673695,2,A
1781598944525,953.276311457122,-16329.754586012503,1271.013376472321,2,A
1781598944546,841.0991113098388,-16285.574696264792,1279.0661561956092,2,A
1781598944568,929.2383399969899,-16337.787293239358,1154.2480704846407,2,A
1781598944590,897.1877113834804,-16454.261548028775,1190.485579239438,2,A
1781598944611,1081.47882591116,-16385.9835366005,1158.2744603462847,2,A
1781598944632,789.0168398128859,-16357.869061306501,1359.5939534284923,2,A
1781598944654,897.1877113834804,-16261.476574584223,1303.2244953654742,2,A
1781598944676,873.1497399233483,-16434.179779961636,1472.3328695545283,2,A
1781598944697,760.9725397760651,-16402.04895105421,1367.6467331517806,2,A
1781598944719,1101.5104687946034,-16590.817570885334,1126.0633414531317,2,A
1781598944740,620.7510395919612,-16426.14707273478,1379.725902736713,2,A
1781598944762,344.3143678004419,-16116.887844500809,1548.8342769257672,2,A
1781598944784,596.713068131829,-16120.904198114236,1347.5147838435598,2,A
1781598944805,760.9725397760651,-16622.94839979276,1387.7786824600014,2,A
1781598944826,813.054811273018,-16719.340886515034,1415.9634114915104,2,A
1781598944848,728.9219111625557,-16554.67038836448,1456.2273101079518,2,A
1781598944870,821.0674684263954,-16132.953258954522,1166.327240069573,2,A
1781598944891,636.7763538987159,-16406.065304667638,1415.9634114915104,2,A
1781598944912,668.8269825122254,-16554.67038836448,1556.8870566490555,2,A
1781598944934,833.0864541564615,-16377.950829373642,1371.6731230134246,2,A
1781598944956,760.9725397760651,-16149.018673408234,1331.4092243969833,2,A
1781598944977,648.795339628782,-16161.06773424852,1572.9926160956322,2,A
1781598944999,664.8206539355367,-16598.85027811219,1440.1217506613752,2,A
1781598945021,340.3080392237532,-16442.21248718849,1798.4704483477044,2,A
1781598945042,720.9092540091783,-16261.476574584223,1230.7494778558794,2,A
1781598945063,616.7447110152725,-16381.96718298707,1456.2273101079518,2,A
1781598945084,728.9219111625557,-16209.263977609657,1415.9634114915104,2,A
1781598945107,668.8269825122254,-16245.41116013051,1464.28008983124,2,A
1781598945128,897.1877113834804,-16498.441437776484,1379.725902736713,2,A
1781598945150,1133.5610974081128,-16711.30817928818,1186.4591893777938,2,A
1781598945172,1217.6939975185753,-16787.618897943314,1085.79944283669,2,A
1781598945193,857.1244256165936,-16329.754586012503,1363.6203432901364,2,A
1781598945215,412.42195360414956,-16434.179779961636,1818.6023976559252,2,A
1781598945236,296.23842488017766,-16458.277901642203,1758.206549731263,2,A
1781598945257,220.11818192309266,-16205.247623996229,1705.863481529889,2,A
1781598945279,304.25108203355506,-16136.96961256795,1480.3856492778168,2,A
1781598945300,276.20678199673426,-16205.247623996229,1649.4940234668709,2,A
1781598945322,356.33335353050796,-16389.999890213927,1810.549617932637,2,A
1781598945343,600.7193967085177,-16727.373593741893,1725.9954308381098,2,A
1781598945365,821.0674684263954,-16530.57226668391,1520.6495478942581,2,A
1781598945386,504.5675108679893,-16048.609833072529,1721.9690409764657,2,A
1781598945408,785.0105112361972,-16253.443867357368,1500.5175985860374,2,A
1781598945430,756.9662111993764,-16217.296684836514,1520.6495478942581,2,A
1781598945451,115.95363892918684,-16076.724308366527,1983.6843819833352,2,A
1781598945473,764.9788683527538,-16659.095582313614,1226.7230879942354,2,A
1781598945495,1942.8394698992272,-16305.656464331934,675.107676948987,2,A
1781598945517,712.8965968558009,-16667.12828954047,1874.9718557189433,2,A
1781598945537,805.0421541196407,-16209.263977609657,1512.5967681709699,2,A
1781598945559,833.0864541564615,-16229.345745676797,1512.5967681709699,2,A
1781598945581,732.9282397392443,-16482.376023322773,1516.6231580326141,2,A
1781598945602,632.7700253220272,-16474.343316095918,1621.3092944353618,2,A
1781598945624,272.20045342004556,-16450.245194415347,1850.8135165490785,2,A
1781598945646,-288.6855473163704,-16261.476574584223,2225.267773681984,2,A
1781598945667,107.94098177580946,-16173.116795088803,1891.0774151655198,2,A
1781598945689,-148.4640471322664,-16221.313038449942,2221.24138382034,2,A
1781598945711,-28.274189831605828,-16502.457791389912,2233.3205534052727,2,A
1781598945733,139.99161038931894,-16606.882985339045,2072.2649589395064,2,A
1781598945754,115.95363892918684,-16317.705525172218,1991.7371617066237,2,A
1781598945775,216.11185334640396,-16446.22884080192,1822.6287875175694,2,A
1781598945797,376.36499641395136,-16253.443867357368,1826.6551773792135,2,A
1781598945819,272.20045342004556,-16269.50928181108,1754.1801598696188,2,A
1781598945840,244.15615338322476,-16349.836354079644,1717.9426511148215,2,A
1781598945862,232.1371676531587,-16534.588620297338,1758.206549731263,2,A
1781598945884,11.789095935281024,-16245.41116013051,1959.5260428134704,2,A
1781598945905,123.96629608256421,-16265.492928197651,1810.549617932637,2,A
1781598945926,548.6371252115648,-16377.950829373642,1492.464818862749,2,A
1781598945949,512.5801680213667,-16659.095582313614,1782.3648889011279,2,A
1781598945970,648.795339628782,-16470.326962482486,1818.6023976559252,2,A
1781598945990,885.1687256534144,-16257.460220970795,1407.910631768222,2,A
1781598946013,789.0168398128859,-16349.836354079644,1496.4912087243933,2,A
1781598946035,1602.3015408806891,-20575.040355406098,1822.6287875175694,2,A
1781598946056,556.6497823649422,-17129.00895508471,1883.0246354422316,2,A
1781598946077,596.713068131829,-15606.81093559543,1601.1773451271413,2,A
1781598946099,-148.4640471322664,-16032.544418618816,1975.631602260047,2,A
1781598946120,-380.83110458021014,-15912.053810215972,1963.5524326751147,2,A
1781598946143,-80.35646132855874,-16012.462650551675,1891.0774151655198,2,A
1781598946164,43.83972454879051,-16305.656464331934,1887.0510253038758,2,A
1781598946186,123.96629608256421,-16438.196133575064,2084.344128524439,2,A
1781598946207,240.1498248065361,-16586.801217271906,2036.0274501847093,2,A
1781598946229,756.9662111993764,-16494.425084163056,1432.068970938087,2,A
1781598946251,580.6877538250743,-16092.78972282024,1661.5731930518034,2,A
1781598946272,304.25108203355506,-15891.97204214883,1806.5232280709927,2,A
1781598946293,572.6750966716969,-16691.22641122104,1697.8107018066007,2,A
1781598946315,821.0674684263954,-16847.864202144738,1387.7786824600014,2,A
1781598946336,488.54219656123456,-16189.182209542516,1496.4912087243933,2,A
1781598946359,51.852381702167875,-16000.413589711392,1669.6259727750917,2,A
1781598946380,91.91566746905472,-15855.824859627975,1842.7607368257902,2,A
1781598946401,172.04223900282844,-16245.41116013051,2213.1886040970517,2,A
1781598946423,572.6750966716969,-16458.277901642203,1874.9718557189433,2,A
1781598946444,768.9851969294425,-17193.270612899563,1774.3121091778396,2,A
1781598946466,825.0737970030841,-17052.698236429576,1520.6495478942581,2,A
1781598946487,260.1814676899795,-16237.378452903655,1585.0717856805645,2,A
1781598946509,-316.72984735319113,-15775.497787359413,1935.3677036436056,2,A
1781598946531,3.7764387819036527,-16092.78972282024,1798.4704483477044,2,A
1781598946553,448.4789107943477,-16394.016243827355,1653.5204133285151,2,A
1781598946574,704.8839397024235,-16217.296684836514,1383.7522925983571,2,A
1781598946595,905.2003685368578,-16233.362099290227,1476.3592594161726,2,A
1781598946617,288.2257677268003,-16562.703095591336,2277.6108418833583,2,A
1781598946638,480.52953940785716,-16771.553483489603,1705.863481529889,2,A
1781598946660,728.9219111625557,-16402.04895105421,1480.3856492778168,2,A
1781598946682,688.8586253956688,-16149.018673408234,1403.884241906578,2,A
1781598946703,292.23209630348896,-15992.380882484535,1778.3384990394838,2,A
1781598946725,264.1877962666682,-16072.7079547531,1923.2885340586731,2,A
1781598946746,793.0231683895746,-16261.476574584223,1480.3856492778168,2,A
1781598946768,740.9408968926217,-16618.932046179332,1673.652362636736,2,A
1781598946790,1021.3838972608297,-16586.801217271906,1375.6995128750689,2,A
1781598946811,560.6561109416309,-16385.9835366005,1649.4940234668709,2,A
1781598946832,592.7067395551404,-16024.51171139196,1540.781497202479,2,A
1781598946854,460.49789652441376,-16096.806076433668,1601.1773451271413,2,A
1781598946875,797.0294969662633,-16438.196133575064,1701.837091668245,2,A
1781598946898,905.2003685368578,-16514.5068522302,1613.2565147120736,2,A
1781598946919,789.0168398128859,-16522.539559457055,1806.5232280709927,2,A
1781598946941,861.1307541932823,-16542.621327524193,1548.8342769257672,2,A
1781598946963,817.0611398497067,-16285.574696264792,1669.6259727750917,2,A
1781598946985,724.915582585867,-16265.492928197651,1705.863481529889,2,A
1781598947005,688.8586253956688,-16434.179779961636,1681.7051423600242,2,A
1781598947026,1129.554768831424,-16972.37116416101,1319.3300548120508,2,A
1781598947048,728.9219111625557,-16052.626186685957,1552.8606667874114,2,A
1781598947070,504.5675108679893,-16197.214916769373,1794.4440584860604,2,A
1781598947091,744.9472254693104,-16321.721878785645,1713.9162612531773,2,A
1781598947113,953.276311457122,-16570.73580281819,1693.7843119449567,2,A
1781598947135,909.2066971135465,-16373.934475760212,1653.5204133285151,2,A
1781598947156,656.8079967821593,-16313.68917155879,1685.7315322216682,2,A
1781598947177,548.6371252115648,-16337.787293239358,1830.6815672408577,2,A
1781598947199,845.1054398865275,-16398.032597440782,1577.0190059572762,2,A
1781598947221,756.9662111993764,-16253.443867357368,1540.781497202479,2,A
1781598947242,616.7447110152725,-16245.41116013051,1786.3912787627721,2,A
1781598947264,684.8522968189801,-16345.820000466216,1850.8135165490785,2,A
1781598947286,588.7004109784517,-16510.49049861677,1754.1801598696188,2,A
1781598947308,833.0864541564615,-16522.539559457055,1685.7315322216682,2,A
1781598947329,760.9725397760651,-16369.918122146784,1468.3064796928843,2,A
1781598947350,772.9915255061312,-16273.525635424508,1625.335684297006,2,A
1781598947371,584.694082401763,-16361.885414919929,1697.8107018066007,2,A
1781598947392,696.8712825490462,-16406.065304667638,1778.3384990394838,2,A
1781598947415,612.7383824385838,-16474.343316095918,1790.4176686244161,2,A
1781598947437,656.8079967821593,-16261.476574584223,1532.7287174791907,2,A
1781598947457,620.7510395919612,-16337.787293239358,1637.4148538819386,2,A
1781598947479,468.5105536777911,-16353.852707693071,1750.1537700079748,2,A
1781598947501,560.6561109416309,-16450.245194415347,1685.7315322216682,2,A
1781598947523,632.7700253220272,-16217.296684836514,1577.0190059572762,2,A
1781598947544,781.0041826595086,-16590.817570885334,1532.7287174791907,2,A
1781598947565,801.035825542952,-16377.950829373642,1693.7843119449567,2,A
1781598947587,805.0421541196407,-16337.787293239358,1560.9134465106997,2,A
1781598947609,809.0484826963294,-16277.541989037936,1653.5204133285151,2,A
1781598947631,708.8902682791122,-16305.656464331934,1621.3092944353618,2,A
1781598947651,532.6118109048101,-16446.22884080192,1862.8926861340108,2,A
1781598947673,644.7890110520933,-16514.5068522302,1681.7051423600242,2,A
1781598947695,676.8396396656027,-16482.376023322773,1689.7579220833125,2,A
1781598947717,845.1054398865275,-16394.016243827355,1488.438429001105,2,A
1781598947738,488.54219656123456,-16301.640110718505,1778.3384990394838,2,A
1781598947759,740.9408968926217,-16373.934475760212,1617.2829045737178,2,A
1781598947781,556.6497823649422,-16281.558342651364,1721.9690409764657,2,A
1781598947803,604.7257252852064,-16478.359669709345,1701.837091668245,2,A
1781598947824,568.6687680950082,-16514.5068522302,1689.7579220833125,2,A
1781598947846,772.9915255061312,-16373.934475760212,1516.6231580326141,2,A
1781598947867,704.8839397024235,-16165.084087861947,1625.335684297006,2,A
1781598947889,636.7763538987159,-16221.313038449942,1629.3620741586503,2,A
1781598947910,660.814325358848,-16418.11436550792,1589.0981755422088,2,A
1781598947932,652.8016682054706,-16602.866631725617,1661.5731930518034,2,A
1781598947954,793.0231683895746,-16446.22884080192,1536.755107340835,2,A
1781598947975,588.7004109784517,-16309.672817945362,1633.3884640202944,2,A
1781598947997,524.5991537514327,-16205.247623996229,1770.2857193161954,2,A
1781598948019,789.0168398128859,-16157.05138063509,1452.2009202463078,2,A
1781598948040,648.795339628782,-16406.065304667638,1681.7051423600242,2,A
1781598948061,680.8459682422914,-16438.196133575064,1625.335684297006,2,A
1781598948083,648.795339628782,-16381.96718298707,1701.837091668245,2,A
1781598948105,632.7700253220272,-16385.9835366005,1597.150955265497,2,A
1781598948126,616.7447110152725,-16418.11436550792,1701.837091668245,2,A
1781598948148,632.7700253220272,-16530.57226668391,1693.7843119449567,2,A
1781598948169,596.713068131829,-16321.721878785645,1532.7287174791907,2,A
1781598948191,600.7193967085177,-16201.231270382801,1589.0981755422088,2,A
1781598948212,588.7004109784517,-16361.885414919929,1633.3884640202944,2,A
1781598948234,640.7826824754046,-16566.719449204764,1613.2565147120736,2,A
1781598948256,636.7763538987159,-16406.065304667638,1641.4412437435826,2,A
1781598948278,552.6434537882535,-16325.738232399075,1589.0981755422088,2,A
1781598948299,512.5801680213667,-16418.11436550792,1669.6259727750917,2,A
1781598948321,600.7193967085177,-16289.591049878221,1568.966226233988,2,A
1781598948342,648.795339628782,-16369.918122146784,1440.1217506613752,2,A
1781598948363,476.5232108311685,-16454.261548028775,1717.9426511148215,2,A
1781598948385,564.6624395183196,-16530.57226668391,1730.021820699754,2,A
1781598948406,608.7320538618951,-16345.820000466216,1556.8870566490555,2,A
1781598948428,536.6181394814988,-16329.754586012503,1581.0453958189205,2,A
1781598948450,628.7636967453385,-16426.14707273478,1689.7579220833125,2,A
1781598948471,596.713068131829,-16341.803646852788,1633.3884640202944,2,A
1781598948492,652.8016682054706,-16381.96718298707,1637.4148538819386,2,A
1781598948514,524.5991537514327,-16293.60740349165,1689.7579220833125,2,A
1781598948536,604.7257252852064,-16474.343316095918,1637.4148538819386,2,A
1781598948557,692.8649539723575,-16498.441437776484,1492.464818862749,2,A
1781598948579,524.5991537514327,-16414.098011894494,1480.3856492778168,2,A
1781598948600,480.52953940785716,-16622.94839979276,1742.1009902846863,2,A
1781598948622,428.44726791090426,-16313.68917155879,1665.5995829134476,2,A
1781598948643,448.4789107943477,-16157.05138063509,1697.8107018066007,2,A
1781598948665,400.40296787408346,-16261.476574584223,1713.9162612531773,2,A
1781598948688,432.45359648759296,-16430.16342634821,1677.67875249838,2,A
1781598948709,480.52953940785716,-16526.555913070482,1605.2037349887853,2,A
1781598948731,580.6877538250743,-16357.869061306501,1605.2037349887853,2,A
1781598948752,416.4282821808382,-16245.41116013051,1705.863481529889,2,A
1781598948774,228.13083907647,-16329.754586012503,1665.5995829134476,2,A
1781598948796,424.4409393342156,-16385.9835366005,1685.7315322216682,2,A
1781598948817,460.49789652441376,-16474.343316095918,1641.4412437435826,2,A
1781598948838,408.41562502746086,-16398.032597440782,1605.2037349887853,2,A
1781598948860,384.37765356732876,-16438.196133575064,1713.9162612531773,2,A
1781598948882,572.6750966716969,-16402.04895105421,1484.4120391394608,2,A
1781598948905,684.8522968189801,-16490.40873054963,1593.1245654038528,2,A
1781598948925,400.40296787408346,-16450.245194415347,1802.4968382093487,2,A
1781598948946,324.28272491699846,-16281.558342651364,1810.549617932637,2,A
1781598948968,504.5675108679893,-16341.803646852788,1480.3856492778168,2,A
1781598948990,496.5548537146119,-16389.999890213927,1725.9954308381098,2,A
1781598949012,376.36499641395136,-16578.768510045047,1834.7079571025017,2,A
1781598949033,308.2574106102437,-16353.852707693071,1701.837091668245,2,A
1781598949056,412.42195360414956,-15968.282760803966,1717.9426511148215,2,A
1781598949076,504.5675108679893,-16329.754586012503,1593.1245654038528,2,A
1781598949098,564.6624395183196,-16683.19370399418,1693.7843119449567,2,A
1781598949120,464.50422510110246,-16349.836354079644,1685.7315322216682,2,A
1781598949141,360.3396821071966,-16056.642540299386,1673.652362636736,2,A
1781598949162,244.15615338322476,-16357.869061306501,1895.103805027164,2,A
1781598949184,336.3017106470645,-16422.130719121353,1822.6287875175694,2,A
1781598949206,436.45992506428166,-16361.885414919929,1649.4940234668709,2,A
1781598949227,448.4789107943477,-16394.016243827355,1697.8107018066007,2,A
1781598949249,59.865038855545244,-16205.247623996229,2092.3969082477274,2,A
1781598949270,228.13083907647,-16297.623757105077,1834.7079571025017,2,A
1781598949291,468.5105536777911,-16482.376023322773,1721.9690409764657,2,A
1781598949314,360.3396821071966,-16333.77093962593,1854.8399064107225,2,A
1781598949334,232.1371676531587,-16414.098011894494,1995.7635515682678,2,A
1781598949357,304.25108203355506,-16406.065304667638,1983.6843819833352,2,A
1781598949378,220.11818192309266,-16181.14950231566,1786.3912787627721,2,A
1781598949399,284.2194391501116,-16281.558342651364,1770.2857193161954,2,A
1781598949421,336.3017106470645,-16606.882985339045,1919.2621441970289,2,A
1781598949443,376.36499641395136,-16337.787293239358,1713.9162612531773,2,A
1781598949464,236.1434962298474,-16145.002319794807,1746.1273801463306,2,A
1781598949486,288.2257677268003,-16293.60740349165,1943.420483366894,2,A
1781598949508,196.08021046296054,-16381.96718298707,1987.7107718449795,2,A
1781598949530,440.4662536409703,-16450.245194415347,1742.1009902846863,2,A
1781598949550,700.8776111257349,-16365.901768533357,1452.2009202463078,2,A
1781598949572,220.11818192309266,-16357.869061306501,1903.1565847504523,2,A
1781598949593,152.010596119385,-16273.525635424508,2023.9482805997768,2,A
1781598949615,668.8269825122254,-16337.787293239358,1556.8870566490555,2,A
1781598949636,584.694082401763,-16394.016243827355,1758.206549731263,2,A
1781598949659,368.352339260574,-16410.081658281066,1951.4732630901822,2,A
1781598949680,472.5168822544798,-16418.11436550792,1774.3121091778396,2,A
1781598949701,668.8269825122254,-16373.934475760212,1577.0190059572762,2,A
1781598949723,776.9978540828199,-16663.11193592704,1540.781497202479,2,A
1781598949744,220.11818192309266,-16341.803646852788,1943.420483366894,2,A
1781598949766,280.2131105734229,-16016.479004165103,1874.9718557189433,2,A
1781598949788,528.6054823281214,-16245.41116013051,1762.232939592907,2,A
1781598949809,656.8079967821593,-16442.21248718849,1617.2829045737178,2,A
1781598949830,789.0168398128859,-16446.22884080192,1613.2565147120736,2,A
1781598949852,893.1813828067917,-16526.555913070482,1544.8078870641232,2,A
1781598949874,688.8586253956688,-16145.002319794807,1637.4148538819386,2,A
1781598949895,344.3143678004419,-16076.724308366527,1802.4968382093487,2,A
1781598949917,524.5991537514327,-16124.920551727664,1681.7051423600242,2,A
1781598949939,809.0484826963294,-16510.49049861677,1770.2857193161954,2,A
1781598949960,925.2320114203012,-16369.918122146784,1597.150955265497,2,A
1781598949982,744.9472254693104,-16261.476574584223,1657.5468031901594,2,A
1781598950003,680.8459682422914,-16317.705525172218,1850.8135165490785,2,A
1781598950025,604.7257252852064,-16385.9835366005,1931.3413137819614,2,A
1781598950047,805.0421541196407,-16317.705525172218,1661.5731930518034,2,A
1781598950068,760.9725397760651,-16538.604973910766,1617.2829045737178,2,A
1781598950090,612.7383824385838,-16546.637681137625,1826.6551773792135,2,A
1781598950111,460.49789652441376,-16285.574696264792,1887.0510253038758,2,A
1781598950133,528.6054823281214,-16389.999890213927,1560.9134465106997,2,A
1781598950154,801.035825542952,-16502.457791389912,1544.8078870641232,2,A
1781598950176,849.1117684632162,-16606.882985339045,1649.4940234668709,2,A
1781598950198,748.9535540459991,-16325.738232399075,1637.4148538819386,2,A
1781598950219,925.2320114203012,-16418.11436550792,1460.253699969596,2,A
1781598950241,917.2193542669239,-16398.032597440782,1387.7786824600014,2,A
1781598950262,744.9472254693104,-16438.196133575064,1637.4148538819386,2,A
1781598950284,772.9915255061312,-16402.04895105421,1673.652362636736,2,A
1781598950305,793.0231683895746,-16458.277901642203,1528.7023276175464,2,A
1781598950327,680.8459682422914,-16373.934475760212,1629.3620741586503,2,A
1781598950349,720.9092540091783,-16357.869061306501,1681.7051423600242,2,A
1781598950369,656.8079967821593,-16297.623757105077,1669.6259727750917,2,A
1781598950391,732.9282397392443,-16325.738232399075,1560.9134465106997,2,A
1781598950413,821.0674684263954,-16301.640110718505,1520.6495478942581,2,A
1781598950435,668.8269825122254,-16446.22884080192,1657.5468031901594,2,A
1781598950456,620.7510395919612,-16329.754586012503,1826.6551773792135,2,A
1781598950477,929.2383399969899,-16442.21248718849,1432.068970938087,2,A
1781598950499,736.934568315933,-16229.345745676797,1597.150955265497,2,A
1781598950521,616.7447110152725,-16225.32939206337,1689.7579220833125,2,A
1781598950542,857.1244256165936,-16454.261548028775,1585.0717856805645,2,A
1781598950563,869.1434113466596,-16486.3923769362,1544.8078870641232,2,A
1781598950586,849.1117684632162,-16498.441437776484,1661.5731930518034,2,A
1781598950608,716.9029254324896,-16257.460220970795,1633.3884640202944,2,A
1781598950629,744.9472254693104,-16361.885414919929,1665.5995829134476,2,A
1781598950650,817.0611398497067,-16329.754586012503,1677.67875249838,2,A
1781598950671,845.1054398865275,-16329.754586012503,1532.7287174791907,2,A
1781598950694,877.156068500037,-16406.065304667638,1415.9634114915104,2,A
1781598950714,917.2193542669239,-16502.457791389912,1613.2565147120736,2,A
1781598950736,752.9598826226878,-16329.754586012503,1697.8107018066007,2,A
1781598950758,957.2826400338107,-16353.852707693071,1484.4120391394608,2,A
1781598950779,889.1750542301031,-16462.29425525563,1504.5439884476816,2,A
1781598950801,680.8459682422914,-16361.885414919929,1746.1273801463306,2,A
1781598950823,1001.3522543773862,-16671.144643153897,1254.9078170257444,2,A
1781598950845,352.32702495381926,-16651.062875086755,2088.3705183860834,2,A
1781598950866,813.054811273018,-16189.182209542516,1480.3856492778168,2,A
1781598950887,949.2699828804333,-16410.081658281066,1681.7051423600242,2,A
1781598950909,676.8396396656027,-16165.084087861947,1625.335684297006,2,A
1781598950930,873.1497399233483,-16458.277901642203,1572.9926160956322,2,A
1781598950952,608.7320538618951,-16341.803646852788,1870.9454658572993,2,A
1781598950974,772.9915255061312,-16466.31060886906,1758.206549731263,2,A
1781598950996,841.0991113098388,-16373.934475760212,1661.5731930518034,2,A
1781598951016,913.2130256902352,-16446.22884080192,1524.6759377559024,2,A
1781598951038,532.6118109048101,-16398.032597440782,1709.8898713915332,2,A
1781598951059,640.7826824754046,-16253.443867357368,1665.5995829134476,2,A
1781598951082,993.3395972240089,-16458.277901642203,1468.3064796928843,2,A
1781598951104,696.8712825490462,-16663.11193592704,1786.3912787627721,2,A
1781598951124,656.8079967821593,-16373.934475760212,1818.6023976559252,2,A
1781598951146,776.9978540828199,-16313.68917155879,1709.8898713915332,2,A
1781598951167,813.054811273018,-16265.492928197651,1601.1773451271413,2,A
1781598951189,1009.3649115307636,-16402.04895105421,1500.5175985860374,2,A
1781598951211,853.1180970399049,-16337.787293239358,1621.3092944353618,2,A
1781598951233,732.9282397392443,-16301.640110718505,1814.5760077942812,2,A
1781598951254,833.0864541564615,-16530.57226668391,1685.7315322216682,2,A
1781598951275,1157.599068868245,-16406.065304667638,1428.0425810764427,2,A
1781598951297,993.3395972240089,-16341.803646852788,1621.3092944353618,2,A
1781598951318,748.9535540459991,-16277.541989037936,1931.3413137819614,2,A
1781598951340,885.1687256534144,-16361.885414919929,1641.4412437435826,2,A
1781598951361,953.276311457122,-16329.754586012503,1528.7023276175464,2,A
1781598951383,965.2952971871881,-16430.16342634821,1609.2301248504295,2,A
1781598951405,768.9851969294425,-16426.14707273478,1838.734346964146,2,A
1781598951426,781.0041826595086,-16418.11436550792,1798.4704483477044,2,A
1781598951448,853.1180970399049,-16193.198563155944,1496.4912087243933,2,A
1781598951469,1177.6307117516883,-16293.60740349165,1347.5147838435598,2,A
1781598951491,965.2952971871881,-16598.85027811219,1657.5468031901594,2,A
1781598951512,612.7383824385838,-16614.9156925659,1959.5260428134704,2,A
1781598951534,945.2636543037447,-16606.882985339045,1742.1009902846863,2,A
1781598951556,1037.4092115675844,-16080.740661979955,1524.6759377559024,2,A
1781598951577,1033.4028829908957,-15590.745521141716,1343.4883939819156,2,A
1781598951599,957.2826400338107,-15867.87392046826,1637.4148538819386,2,A
1781598951620,728.9219111625557,-16165.084087861947,1911.2093644737406,2,A
1781598951642,752.9598826226878,-16108.855137273953,1838.734346964146,2,A
1781598951664,1101.5104687946034,-16426.14707273478,1613.2565147120736,2,A
1781598951685,520.592825174744,-18699.403217935134,1766.2593294545513,2,A
1781598951706,1277.7889261689056,-15739.350604838559,1589.0981755422088,2,A
1781598951728,893.1813828067917,-14992.308832740915,1230.7494778558794,2,A
1781598951749,1470.0926978499624,-15996.397236097962,1399.8578520449337,2,A
1781598951771,1233.71931182533,-16205.247623996229,1705.863481529889,2,A
1781598951792,825.0737970030841,-16044.593479459101,2023.9482805997768,2,A
1781598951815,1213.6876689418866,-16128.936905341094,1581.0453958189205,2,A
1781598951836,949.2699828804333,-16598.85027811219,2104.47607783266,2,A
1781598951857,953.276311457122,-16558.68674197791,2011.8691110148443,2,A
1781598951879,1325.8648690891698,-16402.04895105421,1456.2273101079518,2,A
1781598951900,1221.700326095264,-16325.738232399075,1633.3884640202944,2,A
1781598951922,917.2193542669239,-16462.29425525563,1838.734346964146,2,A
1781598951944,901.1940399601691,-16426.14707273478,1883.0246354422316,2,A
1781598951965,1237.7256404020186,-16313.68917155879,1480.3856492778168,2,A
1781598951987,1077.4724973344712,-16305.656464331934,1629.3620741586503,2,A
1781598952009,945.2636543037447,-16454.261548028775,1899.1301948888083,2,A
1781598952030,933.2446685736786,-16462.29425525563,1689.7579220833125,2,A
1781598952052,1065.4535116044053,-16281.558342651364,1468.3064796928843,2,A
1781598952073,785.0105112361972,-16317.705525172218,1738.0746004230423,2,A
1781598952095,945.2636543037447,-16217.296684836514,1544.8078870641232,2,A
1781598952117,736.934568315933,-16157.05138063509,1689.7579220833125,2,A
1781598952139,965.2952971871881,-15972.299114417394,1411.9370216298662,2,A
1781598952159,929.2383399969899,-16389.999890213927,1721.9690409764657,2,A
1781598952182,1033.4028829908957,-16574.75215643162,1721.9690409764657,2,A
1781598952202,921.2256828436125,-16406.065304667638,1818.6023976559252,2,A
1781598952224,989.3332686473202,-16145.002319794807,1476.3592594161726,2,A
1781598952246,873.1497399233483,-16398.032597440782,1556.8870566490555,2,A
1781598952267,945.2636543037447,-16530.57226668391,1617.2829045737178,2,A
1781598952289,849.1117684632162,-16261.476574584223,1609.2301248504295,2,A
1781598952310,752.9598826226878,-16229.345745676797,1436.095360799731,2,A
1781598952332,540.6244680581875,-16410.081658281066,1713.9162612531773,2,A
1781598952353,528.6054823281214,-16659.095582313614,1959.5260428134704,2,A
1781598952375,789.0168398128859,-16353.852707693071,1520.6495478942581,2,A
1781598952397,768.9851969294425,-16201.231270382801,1556.8870566490555,2,A
1781598952418,464.50422510110246,-16458.277901642203,1673.652362636736,2,A
1781598952440,532.6118109048101,-16518.523205843627,1794.4440584860604,2,A
1781598952461,789.0168398128859,-16470.326962482486,1544.8078870641232,2,A
1781598952483,720.9092540091783,-16438.196133575064,1564.9398363723437,2,A
1781598952504,652.8016682054706,-16514.5068522302,1713.9162612531773,2,A
1781598952527,752.9598826226878,-16430.16342634821,1605.2037349887853,2,A
1781598952547,793.0231683895746,-16177.13314870223,1492.464818862749,2,A
1781598952569,1057.440854451028,-16470.326962482486,1279.0661561956092,2,A
1781598952591,736.934568315933,-16329.754586012503,1572.9926160956322,2,A
1781598952612,841.0991113098388,-16277.541989037936,1399.8578520449337,2,A
1781598952634,1009.3649115307636,-16353.852707693071,1250.8814271641002,2,A
1781598952656,716.9029254324896,-16434.179779961636,1685.7315322216682,2,A
1781598952676,488.54219656123456,-16369.918122146784,1641.4412437435826,2,A
1781598952699,821.0674684263954,-16510.49049861677,1351.5411737052038,2,A
1781598952720,905.2003685368578,-16558.68674197791,1315.3036649504065,2,A
1781598952742,576.6814252483856,-16165.084087861947,1641.4412437435826,2,A
1781598952764,612.7383824385838,-15803.61226265341,1415.9634114915104,2,A
1781598952785,400.40296787408346,-16614.9156925659,1786.3912787627721,2,A
1781598952806,1157.599068868245,-16976.38751777444,1150.2216806229965,2,A
1781598952828,1125.5484402547354,-16944.256688867015,1452.2009202463078,2,A
1781598952849,1233.71931182533,-16020.495357778533,965.0077469873656,2,A
1781598952870,752.9598826226878,-16337.787293239358,1399.8578520449337,2,A
1781598952893,813.054811273018,-16233.362099290227,1351.5411737052038,2,A
1781598952913,352.32702495381926,-16534.588620297338,1730.021820699754,2,A
1781598952936,776.9978540828199,-16410.081658281066,1122.0369515914874,2,A
1781598952958,604.7257252852064,-16478.359669709345,1407.910631768222,2,A
1781598952979,400.40296787408346,-16241.394806517083,1734.048210561398,2,A
1781598953001,841.0991113098388,-16598.85027811219,1319.3300548120508,2,A
1781598953022,776.9978540828199,-16442.21248718849,1444.1481405230195,2,A
1781598953043,600.7193967085177,-16305.656464331934,1589.0981755422088,2,A
1781598953065,576.6814252483856,-16189.182209542516,1601.1773451271413,2,A
1781598953086,628.7636967453385,-16241.394806517083,1315.3036649504065,2,A
1781598953108,821.0674684263954,-16265.492928197651,1379.725902736713,2,A
1781598953129,620.7510395919612,-16394.016243827355,1693.7843119449567,2,A
1781598953151,660.814325358848,-16651.062875086755,1689.7579220833125,2,A
1781598953174,809.0484826963294,-16422.130719121353,1472.3328695545283,2,A
1781598953194,993.3395972240089,-16225.32939206337,1097.8786124216226,2,A
1781598953216,720.9092540091783,-16402.04895105421,1512.5967681709699,2,A
1781598953238,949.2699828804333,-16550.654034751053,1375.6995128750689,2,A
1781598953259,893.1813828067917,-16389.999890213927,1468.3064796928843,2,A
1781598953281,809.0484826963294,-16373.934475760212,1311.2772750887625,2,A
1781598953302,913.2130256902352,-16522.539559457055,1480.3856492778168,2,A
1781598953324,821.0674684263954,-16398.032597440782,1532.7287174791907,2,A
1781598953345,925.2320114203012,-16253.443867357368,1319.3300548120508,2,A
1781598953367,1117.5357831013582,-16494.425084163056,1283.0925460572535,2,A
1781598953388,997.3459258006976,-16458.277901642203,1407.910631768222,2,A
1781598953410,684.8522968189801,-16333.77093962593,1774.3121091778396,2,A
1781598953431,869.1434113466596,-16329.754586012503,1504.5439884476816,2,A
1781598953454,989.3332686473202,-16474.343316095918,1371.6731230134246,2,A
1781598953474,1017.377568684141,-16309.672817945362,1307.2508852271183,2,A
1781598953496,961.2889686104994,-16365.901768533357,1383.7522925983571,2,A
1781598953518,797.0294969662633,-16373.934475760212,1568.966226233988,2,A
1781598953539,1005.3585829540749,-16305.656464331934,1319.3300548120508,2,A
1781598953560,949.2699828804333,-16357.869061306501,1552.8606667874114,2,A
1781598953582,997.3459258006976,-16132.953258954522,1391.8050723216454,2,A
1781598953604,1073.4661687577825,-16337.787293239358,1214.6439184093028,2,A
1781598953626,1081.47882591116,-16313.68917155879,1375.6995128750689,2,A
1781598953647,801.035825542952,-16389.999890213927,1585.0717856805645,2,A
1781598953669,813.054811273018,-16349.836354079644,1645.4676336052269,2,A
1781598953690,1077.4724973344712,-16578.768510045047,1403.884241906578,2,A
1781598953711,1277.7889261689056,-16606.882985339045,1198.5383589627263,2,A
1781598953733,957.2826400338107,-16221.313038449942,1508.5703783093259,2,A
1781598953755,672.8333110889141,-15968.282760803966,1484.4120391394608,2,A
1781598953776,732.9282397392443,-16269.50928181108,1484.4120391394608,2,A
1781598953798,977.3142829172541,-16727.373593741893,1351.5411737052038,2,A
1781598953820,937.2509971503673,-16647.046521473327,1524.6759377559024,2,A
1781598953841,776.9978540828199,-16418.11436550792,1476.3592594161726,2,A
1781598953862,921.2256828436125,-16205.247623996229,1323.356444673695,2,A
1781598953884,632.7700253220272,-16149.018673408234,1524.6759377559024,2,A
1781598953907,516.5864965980553,-16418.11436550792,1625.335684297006,2,A
1781598953928,881.1623970767257,-16643.0301678599,1383.7522925983571,2,A
1781598953949,965.2952971871881,-16422.130719121353,1335.4356142586273,2,A
1781598953970,644.7890110520933,-16333.77093962593,1717.9426511148215,2,A
1781598953992,548.6371252115648,-16450.245194415347,1834.7079571025017,2,A
1781598954014,785.0105112361972,-16434.179779961636,1424.0161912147987,2,A
1781598954035,877.156068500037,-16116.887844500809,1351.5411737052038,2,A
1781598954057,821.0674684263954,-16325.738232399075,1556.8870566490555,2,A
1781598954078,648.795339628782,-16562.703095591336,1689.7579220833125,2,A
1781598954100,873.1497399233483,-16422.130719121353,1540.781497202479,2,A
1781598954121,893.1813828067917,-16032.544418618816,1375.6995128750689,2,A
1781598954143,781.0041826595086,-16402.04895105421,1480.3856492778168,2,A
1781598954164,965.2952971871881,-16446.22884080192,1419.9898013531545,2,A
1781598954186,857.1244256165936,-16281.558342651364,1496.4912087243933,2,A
1781598954207,696.8712825490462,-16273.525635424508,1532.7287174791907,2,A
1781598954229,957.2826400338107,-16410.081658281066,1448.1745303846635,2,A
1781598954252,789.0168398128859,-16305.656464331934,1500.5175985860374,2,A
1781598954272,841.0991113098388,-16361.885414919929,1379.725902736713,2,A
1781598954293,1013.3712401074523,-16522.539559457055,1351.5411737052038,2,A
1781598954315,772.9915255061312,-16333.77093962593,1589.0981755422088,2,A
1781598954337,604.7257252852064,-16249.427513743938,1649.4940234668709,2,A
1781598954359,813.054811273018,-16329.754586012503,1492.464818862749,2,A
1781598954380,672.8333110889141,-16285.574696264792,1593.1245654038528,2,A
1781598954401,728.9219111625557,-16466.31060886906,1613.2565147120736,2,A
1781598954424,768.9851969294425,-16381.96718298707,1508.5703783093259,2,A
1781598954444,925.2320114203012,-16402.04895105421,1291.1453257805417,2,A
1781598954467,781.0041826595086,-16373.934475760212,1544.8078870641232,2,A
1781598954488,628.7636967453385,-16406.065304667638,1713.9162612531773,2,A
1781598954509,684.8522968189801,-16398.032597440782,1496.4912087243933,2,A
1781598954531,909.2066971135465,-16474.343316095918,1375.6995128750689,2,A
1781598954552,676.8396396656027,-16510.49049861677,1516.6231580326141,2,A
1781598954574,632.7700253220272,-16325.738232399075,1705.863481529889,2,A
1781598954596,869.1434113466596,-16269.50928181108,1307.2508852271183,2,A
1781598954617,821.0674684263954,-16261.476574584223,1415.9634114915104,2,A
1781598954639,656.8079967821593,-16434.179779961636,1649.4940234668709,2,A
1781598954661,568.6687680950082,-16502.457791389912,1617.2829045737178,2,A
1781598954683,660.814325358848,-16257.460220970795,1512.5967681709699,2,A
1781598954705,736.934568315933,-16377.950829373642,1532.7287174791907,2,A
1781598954726,676.8396396656027,-16381.96718298707,1363.6203432901364,2,A
1781598954748,696.8712825490462,-16450.245194415347,1601.1773451271413,2,A
1781598954769,728.9219111625557,-16313.68917155879,1581.0453958189205,2,A
1781598954791,692.8649539723575,-16257.460220970795,1468.3064796928843,2,A
1781598954813,580.6877538250743,-16377.950829373642,1673.652362636736,2,A
1781598954834,584.694082401763,-16466.31060886906,1649.4940234668709,2,A
1781598954856,644.7890110520933,-16345.820000466216,1593.1245654038528,2,A
1781598954877,853.1180970399049,-16851.880555758165,1476.3592594161726,2,A
1781598954899,688.8586253956688,-16470.326962482486,1633.3884640202944,2,A
1781598954920,328.28905349368716,-16301.640110718505,1883.0246354422316,2,A
1781598954942,624.7573681686498,-16116.887844500809,1661.5731930518034,2,A
1781598954963,288.2257677268003,-16273.525635424508,1721.9690409764657,2,A
1781598954985,620.7510395919612,-16655.079228700186,1621.3092944353618,2,A
1781598955007,664.8206539355367,-16394.016243827355,1572.9926160956322,2,A
1781598955028,596.713068131829,-16221.313038449942,1605.2037349887853,2,A
1781598955049,448.4789107943477,-16398.032597440782,2056.15939949293,2,A
1781598955071,508.57383944467796,-16530.57226668391,1774.3121091778396,2,A
1781598955094,624.7573681686498,-16080.740661979955,1536.755107340835,2,A
1781598955115,572.6750966716969,-16181.14950231566,1637.4148538819386,2,A
1781598955136,805.0421541196407,-16590.817570885334,1633.3884640202944,2,A
1781598955158,789.0168398128859,-16578.768510045047,1472.3328695545283,2,A
1781598955179,728.9219111625557,-16361.885414919929,1415.9634114915104,2,A
1781598955201,564.6624395183196,-16317.705525172218,1742.1009902846863,2,A
1781598955222,536.6181394814988,-16205.247623996229,1520.6495478942581,2,A
1781598955244,608.7320538618951,-16462.29425525563,1548.8342769257672,2,A
1781598955266,388.3839821440174,-16373.934475760212,1822.6287875175694,2,A
1781598955287,412.42195360414956,-16398.032597440782,1645.4676336052269,2,A
1781598955309,752.9598826226878,-16181.14950231566,1460.253699969596,2,A
1781598955330,352.32702495381926,-16193.198563155944,1645.4676336052269,2,A
1781598955351,256.1751391132908,-16466.31060886906,1697.8107018066007,2,A
1781598955373,400.40296787408346,-16763.520776262747,1641.4412437435826,2,A
1781598955395,532.6118109048101,-16221.313038449942,1327.382834535339,2,A
1781598955416,420.4346107575269,-16189.182209542516,1452.2009202463078,2,A
1781598955438,684.8522968189801,-16719.340886515034,1544.8078870641232,2,A
1781598955459,801.035825542952,-16562.703095591336,1444.1481405230195,2,A
1781598955481,644.7890110520933,-16185.165855929088,1343.4883939819156,2,A
1781598955502,781.0041826595086,-16265.492928197651,1182.4327995161498,2,A
1781598955524,580.6877538250743,-16546.637681137625,1512.5967681709699,2,A
1781598955545,376.36499641395136,-16478.359669709345,1685.7315322216682,2,A
1781598955567,540.6244680581875,-16365.901768533357,1327.382834535339,2,A
1781598955589,492.54852513792326,-16506.47414500334,1371.6731230134246,2,A
1781598955611,420.4346107575269,-16518.523205843627,1480.3856492778168,2,A
1781598955631,540.6244680581875,-16321.721878785645,1524.6759377559024,2,A
1781598955653,540.6244680581875,-16241.394806517083,1448.1745303846635,2,A
1781598955676,716.9029254324896,-16462.29425525563,1508.5703783093259,2,A
1781598955697,508.57383944467796,-16630.981107019616,1633.3884640202944,2,A
1781598955718,969.3016257638768,-16205.247623996229,1045.5355442202485,2,A
1781598955740,588.7004109784517,-16008.446296938248,1279.0661561956092,2,A
1781598955761,520.592825174744,-16506.47414500334,1367.6467331517806,2,A
1781598955782,728.9219111625557,-16651.062875086755,1480.3856492778168,2,A
1781598955804,412.42195360414956,-16193.198563155944,1593.1245654038528,2,A
1781598955826,220.11818192309266,-15743.366958451987,1500.5175985860374,2,A
1781598955847,204.0928676163379,-16361.885414919929,1613.2565147120736,2,A
1781598955869,368.352339260574,-16663.11193592704,1568.966226233988,2,A
1781598955891,708.8902682791122,-16128.936905341094,973.0605267106539,2,A
1781598955912,628.7636967453385,-16253.443867357368,1339.4620041202716,2,A
1781598955934,608.7320538618951,-16261.476574584223,1407.910631768222,2,A
1781598955956,696.8712825490462,-16434.179779961636,1428.0425810764427,2,A
1781598955978,1426.023083506387,-16554.67038836448,981.1133064339423,2,A
1781598955998,2091.0736272367085,-17586.873267015526,667.0548972256986,2,A
1781598956020,368.352339260574,-16104.838783660523,1895.103805027164,2,A
1781598956042,488.54219656123456,-16217.296684836514,1641.4412437435826,2,A
1781598956063,857.1244256165936,-16466.31060886906,1214.6439184093028,2,A
1781598956084,1141.5737545614902,-16847.864202144738,812.004932244888,2,A
1781598956106,1333.8775262425472,-17715.396582645226,944.875797679145,2,A
1781598956128,764.9788683527538,-16265.492928197651,1085.79944283669,2,A
1781598956150,123.96629608256421,-14936.07988215292,1697.8107018066007,2,A
1781598956172,83.90301031567735,-15197.142867025754,1734.048210561398,2,A
1781598956192,1037.4092115675844,-16546.637681137625,1283.0925460572535,2,A
1781598956214,1582.2698979972456,-17369.990171890404,1017.3508151887396,2,A
1781598956237,1257.757283285462,-16936.223981640156,791.8729829366672,2,A
1781598956257,1189.6496974817544,-16526.555913070482,429.49789538869385,2,A
1781598956279,532.6118109048101,-16402.04895105421,904.6118990627034,2,A
1781598956300,332.2953820703758,-16442.21248718849,920.71745850928,2,A
1781598956323,-501.0209618808707,-16165.084087861947,993.1924760188747,2,A
1781598956344,260.1814676899795,-15920.086517442827,924.7438483709242,2,A
1781598956365,-184.52100432246453,-16759.504422649316,1963.5524326751147,2,A
1781598956387,368.352339260574,-16626.964753406188,1581.0453958189205,2,A
1781598956408,821.0674684263954,-16659.095582313614,940.8494078175007,2,A
1781598956430,560.6561109416309,-16293.60740349165,1057.614713805181,2,A
1781598956452,564.6624395183196,-16169.100441475375,864.348000446262,2,A
1781598956473,408.41562502746086,-16634.997460633043,1025.403594912028,2,A
1781598956495,656.8079967821593,-16297.623757105077,526.1312520681535,2,A
1781598956516,508.57383944467796,-16285.574696264792,711.3451857037843,2,A
1781598956538,572.6750966716969,-16811.717019623884,743.5563045969375,2,A
1781598956559,416.4282821808382,-16803.68431239703,1291.1453257805417,2,A
1781598956581,280.2131105734229,-16341.803646852788,1492.464818862749,2,A
1781598956603,280.2131105734229,-16201.231270382801,1540.781497202479,2,A
1781598956624,388.3839821440174,-16932.20762802673,1725.9954308381098,2,A
1781598956645,340.3080392237532,-16867.94597021188,1625.335684297006,2,A
1781598956667,937.2509971503673,-16414.098011894494,828.1104916914646,2,A
1781598956688,1225.7066546719527,-15867.87392046826,562.3687608229508,2,A
1781598956710,949.2699828804333,-15944.184639123396,759.661864043514,2,A
1781598956732,740.9408968926217,-16273.525635424508,1419.9898013531545,2,A
1781598956753,937.2509971503673,-16639.01381424647,1238.8022575791679,2,A
1781598956775,704.8839397024235,-16643.0301678599,1218.670308270947,2,A
1781598956796,500.5611822913006,-16924.174920799873,1589.0981755422088,2,A
1781598956818,-244.61593297279484,-16321.721878785645,2056.15939949293,2,A
1781598956841,861.1307541932823,-15397.960547697163,936.8230179558566,2,A
1781598956861,448.4789107943477,-15024.439661648341,1383.7522925983571,2,A
1781598956882,909.2066971135465,-16968.354810547582,1585.0717856805645,2,A
1781598956905,1397.978783469566,-17149.09072315185,989.1660861572306,2,A
1781598956926,1133.5610974081128,-16438.196133575064,1025.403594912028,2,A
1781598956947,212.1055247697153,-15642.958118116283,1661.5731930518034,2,A
1781598956969,-372.81844742683273,-16406.065304667638,2495.035894412142,2,A
1781598956991,624.7573681686498,-16992.452932228152,1677.67875249838,2,A
1781598957012,1670.4091266843966,-16522.539559457055,526.1312520681535,2,A
1781598957034,1409.997769199632,-16064.675247526242,618.7382188859689,2,A
1781598957056,472.5168822544798,-16285.574696264792,1738.0746004230423,2,A
1781598957077,572.6750966716969,-16060.658893912814,1500.5175985860374,2,A
1781598957099,744.9472254693104,-15719.268836771418,1186.4591893777938,2,A
1781598957120,544.6307966348761,-16385.9835366005,1548.8342769257672,2,A
1781598957142,1317.8522119357924,-15201.159220639182,759.661864043514,2,A
1781598957163,969.3016257638768,-16333.77093962593,928.7702382325683,2,A
1781598957184,380.37132499064006,-15871.890274081688,1190.485579239438,2,A
1781598957206,276.20678199673426,-16381.96718298707,1375.6995128750689,2,A
1781598957228,552.6434537882535,-16719.340886515034,1327.382834535339,2,A
1781598957250,732.9282397392443,-16586.801217271906,1701.837091668245,2,A
1781598957270,480.52953940785716,-16253.443867357368,1613.2565147120736,2,A
1781598957293,644.7890110520933,-16072.7079547531,1528.7023276175464,2,A
1781598957314,608.7320538618951,-16313.68917155879,1589.0981755422088,2,A
1781598957336,716.9029254324896,-16594.833924498762,1122.0369515914874,2,A
1781598957357,921.2256828436125,-16446.22884080192,812.004932244888,2,A
1781598957379,612.7383824385838,-16518.523205843627,1295.171715642186,2,A
1781598957400,83.90301031567735,-16474.343316095918,1774.3121091778396,2,A
1781598957422,380.37132499064006,-16349.836354079644,1226.7230879942354,2,A
1781598957443,837.0927827331502,-16044.593479459101,799.9257626599556,2,A
1781598957465,512.5801680213667,-16185.165855929088,1146.1952907613525,2,A
1781598957486,292.23209630348896,-16574.75215643162,2060.1857893545744,2,A
1781598957508,-48.305832715049256,-17040.64917558929,2591.669251091602,2,A
1781598957530,652.8016682054706,-16225.32939206337,1375.6995128750689,2,A
1781598957551,877.156068500037,-15980.33182164425,1081.773052975046,2,A
1781598957574,83.90301031567735,-16345.820000466216,1770.2857193161954,2,A
1781598957595,-344.77414739001193,-16446.22884080192,2116.5552474175925,2,A
1781598957616,584.694082401763,-16695.242764834467,1331.4092243969833,2,A
1781598957638,660.814325358848,-16414.098011894494,1122.0369515914874,2,A
1781598957659,857.1244256165936,-17173.18884483242,1021.3772050503837,2,A
1781598957681,1165.6117260216224,-17064.74729726986,614.7118290243247,2,A
1781598957703,1053.4345258743392,-16984.420225001297,606.6590493010364,2,A
1781598957724,396.3966392973948,-16578.768510045047,1335.4356142586273,2,A
1781598957746,264.1877962666682,-16526.555913070482,1524.6759377559024,2,A
1781598957767,11.789095935281024,-16410.081658281066,1452.2009202463078,2,A
1781598957789,300.24475345686636,-16201.231270382801,1375.6995128750689,2,A
1781598957810,428.44726791090426,-16321.721878785645,1166.327240069573,2,A
1781598957832,268.19412484335686,-16092.78972282024,1174.3800197928615,2,A
1781598957853,520.592825174744,-16871.962323825308,956.9549672640774,2,A
1781598957875,408.41562502746086,-15783.530494586268,908.6382889243475,2,A
1781598957896,152.010596119385,-16526.555913070482,1540.781497202479,2,A
1781598957918,168.03591042613974,-16952.28939609387,1428.0425810764427,2,A
1781598957940,881.1623970767257,-16735.40630096875,679.1340668106311,2,A
1781598957961,829.0801255797728,-16357.869061306501,679.1340668106311,2,A
1781598957983,588.7004109784517,-16289.591049878221,1093.8522225599784,2,A
1781598958004,760.9725397760651,-16843.84784853131,1222.696698132591,2,A
1781598958026,572.6750966716969,-16675.160996767325,1460.253699969596,2,A
1781598958048,644.7890110520933,-16229.345745676797,1178.4064096545055,2,A
1781598958070,-12.248875524851087,-15835.743091560835,1730.021820699754,2,A
1781598958091,-248.6222615494835,-16241.394806517083,1601.1773451271413,2,A
1781598958113,123.96629608256421,-15936.15193189654,860.3216105846178,2,A
1781598958135,-549.0969048011349,-16265.492928197651,1548.8342769257672,2,A
1781598958156,-573.134876261267,-16554.67038836448,1874.9718557189433,2,A
1781598958178,-324.74250450656854,-16402.04895105421,1770.2857193161954,2,A
1781598958199,196.08021046296054,-16562.703095591336,1399.8578520449337,2,A
1781598958221,380.37132499064006,-17257.53227071441,1399.8578520449337,2,A
1781598958242,584.694082401763,-16550.654034751053,896.5591193394151,2,A
1781598958264,348.32069637713056,-16273.525635424508,1194.511969101082,2,A
1781598958285,372.35866783726266,-16241.394806517083,1552.8606667874114,2,A
1781598958307,264.1877962666682,-16458.277901642203,1971.605212398403,2,A
1781598958329,837.0927827331502,-16080.740661979955,1351.5411737052038,2,A
1781598958350,825.0737970030841,-16068.69160113967,1214.6439184093028,2,A
1781598958371,632.7700253220272,-16759.504422649316,1379.725902736713,2,A
1781598958394,127.97262465925289,-16430.16342634821,1315.3036649504065,2,A
1781598958414,27.814410242035763,-15695.170715090848,1158.2744603462847,2,A
1781598958436,-464.9640046906725,-15839.759445174264,1480.3856492778168,2,A
1781598958458,-725.3753621754371,-16594.833924498762,1951.4732630901822,2,A
1781598958479,59.865038855545244,-17289.663099621837,1581.0453958189205,2,A
1781598958501,536.6181394814988,-16478.359669709345,1089.8258326983344,2,A
1781598958523,264.1877962666682,-15799.595909039981,1363.6203432901364,2,A
1781598958544,200.08653903964924,-16418.11436550792,1822.6287875175694,2,A
1781598958566,156.0169246960737,-16655.079228700186,1782.3648889011279,2,A
1781598958588,95.92199604574341,-16630.981107019616,1428.0425810764427,2,A
1781598958609,300.24475345686636,-16912.12585995959,1468.3064796928843,2,A
1781598958631,352.32702495381926,-16502.457791389912,1214.6439184093028,2,A
1781598958652,-128.43240424882296,-16703.275472061323,1701.837091668245,2,A
1781598958674,-340.7678188133233,-16570.73580281819,1915.2357543353849,2,A
1781598958695,-196.5399900525306,-16410.081658281066,1685.7315322216682,2,A
1781598958717,-76.35013275187005,-16028.528065005388,1556.8870566490555,2,A
1781598958738,19.801753088658394,-16044.593479459101,1693.7843119449567,2,A
1781598958760,-72.34380417518136,-16157.05138063509,1818.6023976559252,2,A
1781598958782,-396.8564188869649,-16068.69160113967,1931.3413137819614,2,A
1781598958803,47.84605312547919,-16185.165855929088,1621.3092944353618,2,A
1781598958825,71.8840245856113,-16703.275472061323,1593.1245654038528,2,A
1781598958846,228.13083907647,-16590.817570885334,1371.6731230134246,2,A
1781598958868,148.0042675426963,-15321.649829042028,1109.957782006555,2,A
1781598958891,-1410.4575487892023,-16357.869061306501,2764.8040151423,2,A
1781598958911,532.6118109048101,-17530.64431642753,1552.8606667874114,2,A
1781598958933,1177.6307117516883,-17623.02044953638,1476.3592594161726,2,A
1781598958955,-40.29317556167188,-16088.77336920681,2112.528857555948,2,A
1781598958976,-328.74883308325724,-15353.780657949452,1979.6579921216912,2,A
1781598958998,123.96629608256421,-15900.004749375687,1560.9134465106997,2,A
1781598959019,148.0042675426963,-16253.443867357368,1850.8135165490785,2,A
1781598959040,192.07388188627186,-16807.700666010456,1935.3677036436056,2,A
1781598959063,332.2953820703758,-16301.640110718505,1750.1537700079748,2,A
1781598959084,-420.894390347097,-16285.574696264792,2036.0274501847093,2,A
1781598959106,416.4282821808382,-17004.501993068436,1544.8078870641232,2,A
1781598959127,576.6814252483856,-16900.076799119302,1391.8050723216454,2,A
1781598959149,-28.274189831605828,-16112.87149088738,1854.8399064107225,2,A
1781598959170,-192.5336614758419,-15333.698889882311,1927.3149239203171,2,A
1781598959192,63.87136743223393,-15381.89513324345,1895.103805027164,2,A
1781598959214,292.23209630348896,-16410.081658281066,2201.109434512119,2,A
1781598959235,736.934568315933,-17261.548624327843,1895.103805027164,2,A
1781598959257,909.2066971135465,-17337.859342982978,1685.7315322216682,2,A
1781598959279,-76.35013275187005,-16598.85027811219,2064.2121792162184,2,A
1781598959300,-561.115890531201,-15771.481433745985,2309.8219607765113,2,A
1781598959322,-577.1412048379557,-15630.909057275998,2112.528857555948,2,A
1781598959344,404.40929645077216,-16080.740661979955,1560.9134465106997,2,A
1781598959365,652.8016682054706,-16422.130719121353,1677.67875249838,2,A
1781598959387,732.9282397392443,-16751.47171542246,1645.4676336052269,2,A
1781598959409,933.2446685736786,-16775.56983710303,1629.3620741586503,2,A
1781598959429,264.1877962666682,-16285.574696264792,1862.8926861340108,2,A
1781598959451,-104.39443278869085,-16177.13314870223,1874.9718557189433,2,A
1781598959472,-0.22988979478503244,-16205.247623996229,2007.8427211532003,2,A
1781598959494,51.852381702167875,-16381.96718298707,1870.9454658572993,2,A
1781598959516,236.1434962298474,-16414.098011894494,1951.4732630901822,2,A
1781598959538,440.4662536409703,-16361.885414919929,1721.9690409764657,2,A
1781598959559,524.5991537514327,-16506.47414500334,1762.232939592907,2,A
1781598959581,464.50422510110246,-16522.539559457055,1790.4176686244161,2,A
1781598959602,837.0927827331502,-16357.869061306501,1391.8050723216454,2,A
1781598959623,865.1370827699709,-16414.098011894494,1448.1745303846635,2,A
1781598959645,384.37765356732876,-16265.492928197651,1802.4968382093487,2,A
1781598959667,91.91566746905472,-16277.541989037936,2080.317738662795,2,A
1781598959688,300.24475345686636,-16060.658893912814,1887.0510253038758,2,A
1781598959710,328.28905349368716,-16273.525635424508,1838.734346964146,2,A
1781598959732,829.0801255797728,-16550.654034751053,1520.6495478942581,2,A
1781598959753,412.42195360414956,-16317.705525172218,1814.5760077942812,2,A
1781598959775,392.3903107207061,-16132.953258954522,1701.837091668245,2,A
1781598959796,512.5801680213667,-16353.852707693071,1730.021820699754,2,A
1781598959818,620.7510395919612,-16490.40873054963,1661.5731930518034,2,A
1781598959839,564.6624395183196,-16341.803646852788,1730.021820699754,2,A
1781598959860,384.37765356732876,-16341.803646852788,1657.5468031901594,2,A
1781598959882,424.4409393342156,-16381.96718298707,1673.652362636736,2,A
1781598959904,400.40296787408346,-16173.116795088803,1709.8898713915332,2,A
1781598959926,352.32702495381926,-16257.460220970795,1883.0246354422316,2,A
1781598959947,624.7573681686498,-16418.11436550792,1685.7315322216682,2,A
1781598959969,556.6497823649422,-16353.852707693071,1887.0510253038758,2,A
1781598959990,656.8079967821593,-16269.50928181108,1633.3884640202944,2,A
1781598960012,724.915582585867,-16385.9835366005,1556.8870566490555,2,A
1781598960033,312.2637391869324,-16281.558342651364,1866.919075995655,2,A
1781598960055,356.33335353050796,-16357.869061306501,1685.7315322216682,2,A
1781598960077,656.8079967821593,-16373.934475760212,1319.3300548120508,2,A
1781598960098,568.6687680950082,-16341.803646852788,1589.0981755422088,2,A
1781598960120,332.2953820703758,-16349.836354079644,1854.8399064107225,2,A
1781598960142,352.32702495381926,-16514.5068522302,1826.6551773792135,2,A
1781598960162,736.934568315933,-16373.934475760212,1552.8606667874114,2,A
1781598960184,448.4789107943477,-16221.313038449942,1548.8342769257672,2,A
1781598960206,240.1498248065361,-16285.574696264792,1814.5760077942812,2,A
1781598960227,304.25108203355506,-16486.3923769362,1758.206549731263,2,A
1781598960249,436.45992506428166,-16474.343316095918,1669.6259727750917,2,A
1781598960270,488.54219656123456,-16349.836354079644,1585.0717856805645,2,A
1781598960292,320.27639634030976,-16651.062875086755,1717.9426511148215,2,A
1781598960313,300.24475345686636,-16377.950829373642,1709.8898713915332,2,A
1781598960335,356.33335353050796,-16161.06773424852,1629.3620741586503,2,A
1781598960357,576.6814252483856,-16394.016243827355,1536.755107340835,2,A
1781598960378,548.6371252115648,-16518.523205843627,1673.652362636736,2,A
1781598960401,352.32702495381926,-16438.196133575064,1814.5760077942812,2,A
1781598960422,656.8079967821593,-16381.96718298707,1556.8870566490555,2,A
1781598960443,556.6497823649422,-16695.242764834467,1544.8078870641232,2,A
1781598960464,316.2700677636211,-16426.14707273478,1717.9426511148215,2,A
1781598960486,95.92199604574341,-16132.953258954522,1919.2621441970289,2,A
1781598960508,356.33335353050796,-16116.887844500809,1653.5204133285151,2,A
1781598960530,472.5168822544798,-16281.558342651364,1730.021820699754,2,A
1781598960552,524.5991537514327,-16301.640110718505,1661.5731930518034,2,A
1781598960574,376.36499641395136,-16454.261548028775,1794.4440584860604,2,A
1781598960595,460.49789652441376,-16438.196133575064,1649.4940234668709,2,A
1781598960617,312.2637391869324,-16233.362099290227,1613.2565147120736,2,A
1781598960638,103.93465319912079,-16365.901768533357,1870.9454658572993,2,A
1781598960661,352.32702495381926,-16582.78486365848,1653.5204133285151,2,A
1781598960681,448.4789107943477,-16414.098011894494,1665.5995829134476,2,A
1781598960704,115.95363892918684,-16140.985966181377,1887.0510253038758,2,A
1781598960725,392.3903107207061,-16313.68917155879,1645.4676336052269,2,A
1781598960747,596.713068131829,-16594.833924498762,1560.9134465106997,2,A
1781598960768,324.28272491699846,-16454.261548028775,1846.7871266874342,2,A
1781598960790,284.2194391501116,-16402.04895105421,1657.5468031901594,2,A
1781598960810,156.0169246960737,-16273.525635424508,1895.103805027164,2,A
1781598960833,119.95996750587553,-16422.130719121353,1717.9426511148215,2,A
1781598960854,260.1814676899795,-16261.476574584223,1593.1245654038528,2,A
1781598960876,376.36499641395136,-16381.96718298707,1436.095360799731,2,A
1781598960897,236.1434962298474,-16410.081658281066,1673.652362636736,2,A
1781598960919,220.11818192309266,-16253.443867357368,1782.3648889011279,2,A
1781598960940,276.20678199673426,-16189.182209542516,1629.3620741586503,2,A
1781598960963,716.9029254324896,-16426.14707273478,1323.356444673695,2,A
1781598960984,524.5991537514327,-16486.3923769362,1572.9926160956322,2,A
1781598961005,180.05489615620579,-16518.523205843627,1806.5232280709927,2,A
1781598961027,200.08653903964924,-16329.754586012503,1605.2037349887853,2,A
1781598961049,139.99161038931894,-16233.362099290227,1424.0161912147987,2,A
1781598961070,99.9283246224321,-16297.623757105077,1734.048210561398,2,A
1781598961092,148.0042675426963,-16389.999890213927,1730.021820699754,2,A
1781598961114,252.16881053660214,-16538.604973910766,1725.9954308381098,2,A
1781598961135,444.472582217659,-16651.062875086755,1669.6259727750917,2,A
1781598961157,380.37132499064006,-16297.623757105077,1512.5967681709699,2,A
1781598961178,204.0928676163379,-16337.787293239358,1830.6815672408577,2,A
1781598961199,412.42195360414956,-16373.934475760212,1645.4676336052269,2,A
1781598961221,248.16248195991344,-16345.820000466216,1637.4148538819386,2,A
1781598961243,744.9472254693104,-17369.990171890404,1246.8550373024561,2,A
1781598961265,148.0042675426963,-16333.77093962593,1774.3121091778396,2,A
1781598961286,316.2700677636211,-16213.280331223084,1585.0717856805645,2,A
1781598961308,-112.40708994206821,-16345.820000466216,1975.631602260047,2,A
1781598961329,300.24475345686636,-16205.247623996229,1452.2009202463078,2,A
1781598961351,436.45992506428166,-16353.852707693071,1524.6759377559024,2,A
1781598961372,216.11185334640396,-16309.672817945362,1907.1829746120966,2,A
1781598961394,276.20678199673426,-16438.196133575064,1790.4176686244161,2,A
1781598961415,428.44726791090426,-16490.40873054963,1645.4676336052269,2,A
1781598961437,131.9789532359416,-16249.427513743938,1774.3121091778396,2,A
1781598961458,7.782767358592338,-16281.558342651364,1786.3912787627721,2,A
1781598961480,288.2257677268003,-16486.3923769362,1778.3384990394838,2,A
1781598961502,564.6624395183196,-16763.520776262747,1480.3856492778168,2,A
1781598961523,340.3080392237532,-16462.29425525563,1452.2009202463078,2,A
1781598961544,360.3396821071966,-16201.231270382801,1504.5439884476816,2,A
1781598961566,87.90933889236604,-16329.754586012503,1697.8107018066007,2,A
1781598961588,139.99161038931894,-16418.11436550792,1762.232939592907,2,A
1781598961609,540.6244680581875,-16124.920551727664,1323.356444673695,2,A
1781598961630,388.3839821440174,-16301.640110718505,1415.9634114915104,2,A
1781598961652,308.2574106102437,-16554.67038836448,1693.7843119449567,2,A
1781598961674,340.3080392237532,-16241.394806517083,1713.9162612531773,2,A
1781598961695,252.16881053660214,-16269.50928181108,1705.863481529889,2,A
1781598961717,152.010596119385,-16389.999890213927,1665.5995829134476,2,A
1781598961738,284.2194391501116,-16659.095582313614,1621.3092944353618,2,A
1781598961760,204.0928676163379,-16458.277901642203,1742.1009902846863,2,A
1781598961781,304.25108203355506,-16309.672817945362,1713.9162612531773,2,A
1781598961804,204.0928676163379,-16470.326962482486,1689.7579220833125,2,A
1781598961824,404.40929645077216,-16381.96718298707,1432.068970938087,2,A
1781598961847,452.4852393710364,-16341.803646852788,1516.6231580326141,2,A
1781598961868,412.42195360414956,-16257.460220970795,1633.3884640202944,2,A
1781598961889,292.23209630348896,-16522.539559457055,1689.7579220833125,2,A
1781598961910,488.54219656123456,-16273.525635424508,1581.0453958189205,2,A
1781598961933,428.44726791090426,-16084.757015593383,1585.0717856805645,2,A
1781598961955,628.7636967453385,-16385.9835366005,1552.8606667874114,2,A
1781598961976,360.3396821071966,-16478.359669709345,1746.1273801463306,2,A
1781598961997,488.54219656123456,-16333.77093962593,1560.9134465106997,2,A
1781598962019,364.3460106838853,-16293.60740349165,1669.6259727750917,2,A
1781598962041,448.4789107943477,-16321.721878785645,1577.0190059572762,2,A
1781598962062,268.19412484335686,-16402.04895105421,1846.7871266874342,2,A
1781598962083,264.1877962666682,-16470.326962482486,1939.3940935052497,2,A
1781598962105,552.6434537882535,-16482.376023322773,1597.150955265497,2,A
1781598962126,480.52953940785716,-16357.869061306501,1589.0981755422088,2,A
1781598962148,248.16248195991344,-16398.032597440782,1774.3121091778396,2,A
1781598962170,324.28272491699846,-16369.918122146784,1629.3620741586503,2,A
1781598962191,320.27639634030976,-16377.950829373642,1730.021820699754,2,A
1781598962213,444.472582217659,-16369.918122146784,1528.7023276175464,2,A
1781598962235,376.36499641395136,-16482.376023322773,1657.5468031901594,2,A
1781598962256,268.19412484335686,-16373.934475760212,1862.8926861340108,2,A
1781598962278,-0.22988979478503244,-16249.427513743938,2064.2121792162184,2,A
1781598962299,452.4852393710364,-16337.787293239358,1560.9134465106997,2,A
1781598962321,496.5548537146119,-16365.901768533357,1693.7843119449567,2,A
1781598962343,184.0612247328945,-16289.591049878221,1746.1273801463306,2,A
1781598962364,308.2574106102437,-16498.441437776484,1681.7051423600242,2,A
1781598962386,424.4409393342156,-16446.22884080192,1536.755107340835,2,A
1781598962406,212.1055247697153,-16333.77093962593,1907.1829746120966,2,A
1781598962429,208.0991961930266,-16426.14707273478,1870.9454658572993,2,A
1781598962451,376.36499641395136,-16486.3923769362,1653.5204133285151,2,A
1781598962472,480.52953940785716,-16245.41116013051,1597.150955265497,2,A
1781598962493,276.20678199673426,-16341.803646852788,1786.3912787627721,2,A
1781598962515,320.27639634030976,-16406.065304667638,1673.652362636736,2,A
1781598962536,376.36499641395136,-16466.31060886906,1585.0717856805645,2,A
1781598962558,476.5232108311685,-16418.11436550792,1657.5468031901594,2,A
1781598962579,111.94731035249815,-16317.705525172218,1923.2885340586731,2,A
1781598962601,280.2131105734229,-16301.640110718505,1754.1801598696188,2,A
1781598962623,448.4789107943477,-16169.100441475375,1601.1773451271413,2,A
1781598962645,456.49156794772506,-16410.081658281066,1609.2301248504295,2,A
1781598962665,376.36499641395136,-16546.637681137625,1754.1801598696188,2,A
1781598962687,456.49156794772506,-16418.11436550792,1766.2593294545513,2,A
1781598962709,496.5548537146119,-16269.50928181108,1452.2009202463078,2,A
1781598962730,308.2574106102437,-16313.68917155879,1717.9426511148215,2,A
1781598962752,340.3080392237532,-16325.738232399075,1790.4176686244161,2,A
1781598962774,244.15615338322476,-16470.326962482486,1939.3940935052497,2,A
1781598962795,572.6750966716969,-16265.492928197651,1548.8342769257672,2,A
1781598962816,372.35866783726266,-16406.065304667638,1806.5232280709927,2,A
1781598962838,232.1371676531587,-16389.999890213927,1790.4176686244161,2,A
1781598962859,576.6814252483856,-16514.5068522302,1548.8342769257672,2,A
1781598962881,496.5548537146119,-16426.14707273478,1605.2037349887853,2,A
1781598962903,308.2574106102437,-16249.427513743938,1818.6023976559252,2,A
1781598962925,364.3460106838853,-16333.77093962593,1713.9162612531773,2,A
1781598962946,440.4662536409703,-16241.394806517083,1685.7315322216682,2,A
1781598962969,480.52953940785716,-16317.705525172218,1717.9426511148215,2,A
1781598962989,452.4852393710364,-16562.703095591336,1790.4176686244161,2,A
1781598963011,332.2953820703758,-16406.065304667638,1931.3413137819614,2,A
1781598963033,396.3966392973948,-16068.69160113967,1625.335684297006,2,A
1781598963054,344.3143678004419,-16398.032597440782,1738.0746004230423,2,A
1781598963075,304.25108203355506,-16450.245194415347,1786.3912787627721,2,A
1781598963097,360.3396821071966,-16410.081658281066,1721.9690409764657,2,A
1781598963119,139.99161038931894,-16309.672817945362,1891.0774151655198,2,A
1781598963140,208.0991961930266,-16317.705525172218,1681.7051423600242,2,A
1781598963162,408.41562502746086,-16486.3923769362,1548.8342769257672,2,A
1781598963184,152.010596119385,-16277.541989037936,1935.3677036436056,2,A
1781598963205,348.32069637713056,-16357.869061306501,1770.2857193161954,2,A
1781598963226,372.35866783726266,-16474.343316095918,1790.4176686244161,2,A
1781598963248,416.4282821808382,-16466.31060886906,1762.232939592907,2,A
1781598963269,404.40929645077216,-16193.198563155944,1629.3620741586503,2,A
1781598963291,468.5105536777911,-16329.754586012503,1669.6259727750917,2,A
1781598963313,284.2194391501116,-16293.60740349165,1858.8662962723668,2,A
1781598963335,260.1814676899795,-16377.950829373642,1834.7079571025017,2,A
1781598963356,508.57383944467796,-16337.787293239358,1621.3092944353618,2,A
1781598963378,524.5991537514327,-16398.032597440782,1625.335684297006,2,A
1781598963399,280.2131105734229,-16301.640110718505,1806.5232280709927,2,A
1781598963421,200.08653903964924,-16309.672817945362,1883.0246354422316,2,A
1781598963442,396.3966392973948,-16418.11436550792,1597.150955265497,2,A
1781598963464,432.45359648759296,-16470.326962482486,1641.4412437435826,2,A
1781598963485,368.352339260574,-16333.77093962593,1717.9426511148215,2,A
1781598963507,368.352339260574,-16337.787293239358,1854.8399064107225,2,A
1781598963529,376.36499641395136,-16434.179779961636,1677.67875249838,2,A
1781598963551,985.3269400706315,-16245.41116013051,1122.0369515914874,2,A
1781598963571,376.36499641395136,-16526.555913070482,1689.7579220833125,2,A
1781598963593,135.98528181263026,-16309.672817945362,1943.420483366894,2,A
1781598963614,184.0612247328945,-16161.06773424852,1725.9954308381098,2,A
1781598963637,452.4852393710364,-16261.476574584223,1540.781497202479,2,A
1781598963658,684.8522968189801,-16389.999890213927,1564.9398363723437,2,A
1781598963679,476.5232108311685,-16305.656464331934,1661.5731930518034,2,A
1781598963701,324.28272491699846,-16237.378452903655,1838.734346964146,2,A
1781598963723,416.4282821808382,-16454.261548028775,1693.7843119449567,2,A
1781598963744,452.4852393710364,-16337.787293239358,1657.5468031901594,2,A
1781598963766,336.3017106470645,-16606.882985339045,1895.103805027164,2,A
1781598963787,624.7573681686498,-16458.277901642203,1512.5967681709699,2,A
1781598963809,720.9092540091783,-16329.754586012503,1568.966226233988,2,A
1781598963831,520.592825174744,-16406.065304667638,1794.4440584860604,2,A
1781598963852,720.9092540091783,-16526.555913070482,1665.5995829134476,2,A
1781598963874,472.5168822544798,-16373.934475760212,1633.3884640202944,2,A
1781598963895,416.4282821808382,-16269.50928181108,1633.3884640202944,2,A
1781598963917,592.7067395551404,-16414.098011894494,1496.4912087243933,2,A
1781598963938,785.0105112361972,-16438.196133575064,1307.2508852271183,2,A
1781598963960,516.5864965980553,-16474.343316095918,1629.3620741586503,2,A
1781598963982,572.6750966716969,-16454.261548028775,1721.9690409764657,2,A
1781598964003,504.5675108679893,-16394.016243827355,1717.9426511148215,2,A
1781598964025,492.54852513792326,-16309.672817945362,1564.9398363723437,2,A
1781598964046,612.7383824385838,-16394.016243827355,1572.9926160956322,2,A
1781598964067,504.5675108679893,-16349.836354079644,1661.5731930518034,2,A
1781598964089,632.7700253220272,-16422.130719121353,1548.8342769257672,2,A
1781598964111,504.5675108679893,-16398.032597440782,1725.9954308381098,2,A
1781598964132,392.3903107207061,-16406.065304667638,1782.3648889011279,2,A
1781598964153,312.2637391869324,-16418.11436550792,1758.206549731263,2,A
1781598964175,532.6118109048101,-16478.359669709345,1669.6259727750917,2,A
1781598964197,512.5801680213667,-16341.803646852788,1645.4676336052269,2,A
1781598964218,384.37765356732876,-16381.96718298707,1613.2565147120736,2,A
1781598964240,512.5801680213667,-16317.705525172218,1593.1245654038528,2,A
1781598964262,336.3017106470645,-16257.460220970795,1625.335684297006,2,A
1781598964283,588.7004109784517,-16369.918122146784,1564.9398363723437,2,A
1781598964305,452.4852393710364,-16462.29425525563,1681.7051423600242,2,A
1781598964326,596.713068131829,-16349.836354079644,1601.1773451271413,2,A
1781598964348,360.3396821071966,-16381.96718298707,1705.863481529889,2,A
1781598964370,484.53586798454586,-16410.081658281066,1613.2565147120736,2,A
1781598964391,388.3839821440174,-16245.41116013051,1637.4148538819386,2,A
1781598964413,468.5105536777911,-16353.852707693071,1725.9954308381098,2,A
1781598964434,672.8333110889141,-16474.343316095918,1605.2037349887853,2,A
1781598964456,460.49789652441376,-16450.245194415347,1750.1537700079748,2,A
1781598964477,368.352339260574,-16434.179779961636,1834.7079571025017,2,A
1781598964499,496.5548537146119,-16149.018673408234,1681.7051423600242,2,A
1781598964521,276.20678199673426,-16434.179779961636,1794.4440584860604,2,A
1781598964542,408.41562502746086,-16389.999890213927,1693.7843119449567,2,A
1781598964564,608.7320538618951,-16377.950829373642,1548.8342769257672,2,A
1781598964585,464.50422510110246,-16333.77093962593,1774.3121091778396,2,A
1781598964606,352.32702495381926,-16365.901768533357,1895.103805027164,2,A
1781598964628,468.5105536777911,-16265.492928197651,1766.2593294545513,2,A
1781598964650,516.5864965980553,-16410.081658281066,1552.8606667874114,2,A
1781598964671,500.5611822913006,-16454.261548028775,1673.652362636736,2,A
1781598964692,492.54852513792326,-16474.343316095918,1790.4176686244161,2,A
1781598964714,508.57383944467796,-16261.476574584223,1665.5995829134476,2,A
1781598964736,596.713068131829,-16333.77093962593,1693.7843119449567,2,A
1781598964758,440.4662536409703,-16369.918122146784,1717.9426511148215,2,A
1781598964779,624.7573681686498,-16502.457791389912,1750.1537700079748,2,A
1781598964801,592.7067395551404,-16297.623757105077,1653.5204133285151,2,A
1781598964822,620.7510395919612,-16269.50928181108,1677.67875249838,2,A
1781598964844,564.6624395183196,-16430.16342634821,1717.9426511148215,2,A
1781598964865,708.8902682791122,-16522.539559457055,1617.2829045737178,2,A
1781598964887,432.45359648759296,-16253.443867357368,1774.3121091778396,2,A
1781598964908,440.4662536409703,-16273.525635424508,1742.1009902846863,2,A
1781598964930,444.472582217659,-16422.130719121353,1858.8662962723668,2,A
1781598964952,644.7890110520933,-16526.555913070482,1633.3884640202944,2,A
1781598964974,484.53586798454586,-16398.032597440782,1685.7315322216682,2,A
1781598964995,488.54219656123456,-16277.541989037936,1701.837091668245,2,A
1781598965016,464.50422510110246,-16325.738232399075,1709.8898713915332,2,A
1781598965037,568.6687680950082,-16450.245194415347,1689.7579220833125,2,A
1781598965060,520.592825174744,-16438.196133575064,1693.7843119449567,2,A
1781598965081,540.6244680581875,-16345.820000466216,1794.4440584860604,2,A
1781598965103,464.50422510110246,-16317.705525172218,1657.5468031901594,2,A
1781598965124,416.4282821808382,-16377.950829373642,1685.7315322216682,2,A
1781598965145,380.37132499064006,-16466.31060886906,1717.9426511148215,2,A
1781598965167,468.5105536777911,-16341.803646852788,1786.3912787627721,2,A
1781598965189,532.6118109048101,-16434.179779961636,1641.4412437435826,2,A
1781598965210,384.37765356732876,-16349.836354079644,1750.1537700079748,2,A
1781598965231,448.4789107943477,-16361.885414919929,1750.1537700079748,2,A
1781598965253,504.5675108679893,-16418.11436550792,1689.7579220833125,2,A
