timestamp,ax,ay,az,label,subject_id
1781599086513,-2240,-16296,-2600,5,A
1781599086514,-2256,-16620,-2912,5,A
1781599086515,-1884,-16760,-3164,5,A
1781599086516,-2392,-16488,-2592,5,A
1781599086517,-2304,-16320,-2520,5,A
1781599086518,-2204,-16092,-2512,5,A
1781599086519,-1716,-15604,-3080,5,A
1781599086520,-1968,-15532,-2760,5,A
1781599086521,-1920,-15860,-2420,5,A
1781599086521,-2220,-16476,-1744,5,A
1781599086522,-2276,-16672,-1528,5,A
1781599086522,-2076,-16548,-1688,5,A
1781599086523,-2256,-16656,-1516,5,A
1781599086524,-2536,-17388,-1508,5,A
1781599086524,-2060,-18192,-2384,5,A
1781599086525,-1308,-18932,-3280,5,A
1781599086526,-2420,-16896,-2664,5,A
1781599086527,-3048,-15980,-1884,5,A
1781599086528,-1356,-13816,-2932,5,A
1781599086528,-736,-12048,-2412,5,A
1781599086529,1128,-12416,-3500,5,A
1781599086529,2048,-12632,-3412,5,A
1781599086530,4104,-10152,-4420,5,A
1781599086531,4656,-6144,-3936,5,A
1781599086531,2124,-9004,3116,5,A
1781599086532,-2060,-15212,6748,5,A
1781599086532,-8556,-23268,10216,5,A
1781599086534,-8368,-32768,4964,5,A
1781599086534,-4616,-32768,-2236,5,A
1781599086535,-12024,-29664,2616,5,A
1781599086535,-12824,-11756,5304,5,A
1781599086536,-6408,-5576,1700,5,A
1781599086536,-1608,-7064,-1316,5,A
1781599086537,1592,-8404,-3120,5,A
1781599086537,860,-8552,-1564,5,A
1781599086538,-1280,-8300,-240,5,A
1781599086539,-1032,-10080,116,5,A
1781599086539,-184,-10160,-1216,5,A
1781599086540,-476,-13404,-1568,5,A
1781599086540,-2648,-18068,-64,5,A
1781599086541,-4512,-20016,1836,5,A
1781599086541,-10024,-20412,6620,5,A
1781599086541,-12508,-21616,10780,5,A
1781599086542,-6152,-23620,7220,5,A
1781599086543,-1768,-22712,4392,5,A
1781599086544,-332,-20644,1932,5,A
1781599086545,-3560,-18460,3784,5,A
1781599086545,-4452,-15144,4636,5,A
1781599086546,-3784,-11044,3760,5,A
1781599086547,-2304,-10532,2564,5,A
1781599086547,-688,-10524,1728,5,A
1781599086548,-1184,-12404,2804,5,A
1781599086549,-608,-11392,2480,5,A
1781599086550,-1924,-10836,3828,5,A
1781599086550,-328,-11488,492,5,A
1781599086551,5772,-20200,-5496,5,A
1781599086552,8708,-26868,-7024,5,A
1781599086552,540,-19724,-444,5,A
1781599086554,-8948,-11552,7448,5,A
1781599086554,-11436,-12356,11948,5,A
1781599086555,-4904,-16396,7596,5,A
1781599086556,836,-22432,2108,5,A
1781599086556,3508,-25116,-2104,5,A
1781599086557,872,-20444,-2332,5,A
1781599086557,-4732,-13908,1052,5,A
1781599086558,-6864,-8000,2564,5,A
1781599086559,-6680,-6588,2844,5,A
1781599086559,-5124,-9508,2592,5,A
1781599086560,-2104,-13972,1484,5,A
1781599086560,-296,-18260,1164,5,A
1781599086561,916,-19312,708,5,A
1781599086561,2548,-14608,-1780,5,A
1781599086562,920,-13516,-2656,5,A
1781599086563,512,-15932,-3724,5,A
1781599086563,-2384,-18052,-1432,5,A
1781599086564,-10788,-19728,6768,5,A
1781599086565,-9036,-20580,6884,5,A
1781599086566,-2104,-21504,2284,5,A
1781599086566,4600,-22020,-2644,5,A
1781599086567,3972,-21656,-1264,5,A
1781599086568,-2468,-18720,3884,5,A
1781599086569,-3216,-12972,3104,5,A
1781599086569,-2044,-9988,1904,5,A
1781599086570,16,-8392,-140,5,A
1781599086570,1352,-8964,-1568,5,A
1781599086572,792,-9428,-968,5,A
1781599086572,276,-7440,-456,5,A
1781599086572,3880,-596,-5476,5,A
1781599086573,856,-9312,-5188,5,A
1781599086574,-14276,-32768,9404,5,A
1781599086576,-19628,-32768,12912,5,A
1781599086578,-6924,-32768,2620,5,A
1781599086580,112,-23548,-736,5,A
1781599086582,1188,-17128,-2788,5,A
1781599086583,68,-10176,180,5,A
1781599086586,-320,3480,-1724,5,A
1781599086589,-908,5148,-1492,5,A
1781599086606,1244,1504,-3556,5,A
1781599086628,-2300,-1640,-1668,5,A
1781599086649,-5536,-5528,-2392,5,A
1781599086670,-7876,-25864,112,5,A
1781599086693,-4564,-32768,-336,5,A
1781599086714,-2672,-32768,2468,5,A
1781599086736,-9460,-26696,10168,5,A
1781599086758,-3848,-20752,2488,5,A
1781599086779,-48,-18444,-3008,5,A
1781599086801,1268,-13200,-4516,5,A
1781599086822,-544,-9472,-2380,5,A
1781599086844,-672,-7720,-1604,5,A
1781599086865,3384,-9032,-2280,5,A
1781599086887,5844,-9044,-2124,5,A
1781599086908,2940,436,-1412,5,A
1781599086930,-3100,748,720,5,A
1781599086952,-8824,-11448,3788,5,A
1781599086973,-14196,-32768,10396,5,A
1781599086996,-6628,-32768,1128,5,A
1781599087018,-5960,-32768,2764,5,A
1781599087039,-7488,-17456,7856,5,A
1781599087060,-312,-7860,3468,5,A
1781599087082,6244,-4976,-3540,5,A
1781599087104,6284,-800,-4940,5,A
1781599087125,2620,-2272,-4312,5,A
1781599087147,1464,-3300,-5604,5,A
1781599087169,-4288,-3020,-2304,5,A
1781599087190,-11224,-3312,4184,5,A
1781599087212,-7156,-12232,1120,5,A
1781599087234,3216,-20556,-692,5,A
1781599087254,-212,-32768,8444,5,A
1781599087277,-860,-32768,10440,5,A
1781599087298,1800,-32768,2096,5,A
1781599087320,-6536,-19660,2504,5,A
1781599087342,-13140,-11184,2504,5,A
1781599087363,-10988,-11456,2460,5,A
1781599087385,-5916,-10244,1364,5,A
1781599087407,-844,-9504,-1084,5,A
1781599087428,2920,-10228,-1696,5,A
1781599087449,2976,-7152,96,5,A
1781599087471,2440,-3644,300,5,A
1781599087492,2048,-2292,-696,5,A
1781599087514,-44,-10148,-880,5,A
1781599087536,-5208,-24384,3648,5,A
1781599087558,-3924,-32768,2164,5,A
1781599087580,-11676,-32768,8568,5,A
1781599087601,-11420,-28008,9456,5,A
1781599087622,-172,-21216,2472,5,A
1781599087644,4096,-12616,-1140,5,A
1781599087666,1288,-10700,-1596,5,A
1781599087687,-2784,-7456,-572,5,A
1781599087710,-2772,-5472,-1504,5,A
1781599087732,-848,-4828,-4632,5,A
1781599087753,-3320,-5028,-2884,5,A
1781599087775,-7984,-1412,-276,5,A
1781599087797,-7924,-6548,-60,5,A
1781599087819,-984,-17744,-3072,5,A
1781599087840,-2260,-32768,6132,5,A
1781599087862,-3704,-32768,12084,5,A
1781599087883,-2572,-32768,5980,5,A
1781599087905,-5008,-21688,3292,5,A
1781599087927,-10912,-15088,5456,5,A
1781599087948,-7376,-11680,2020,5,A
1781599087970,1024,-10460,-2984,5,A
1781599087991,3008,-5112,-3508,5,A
1781599088013,2120,-5440,-1480,5,A
1781599088035,3064,-6052,-404,5,A
1781599088056,5632,-4320,-2104,5,A
1781599088078,8024,-3324,-4016,5,A
1781599088100,3224,-2296,-1044,5,A
1781599088121,-3664,-11944,1716,5,A
1781599088145,-4056,-32768,5192,5,A
1781599088165,-3548,-32768,5740,5,A
1781599088186,-2392,-32768,5024,5,A
1781599088208,-312,-31272,2240,5,A
1781599088230,-544,-19664,1636,5,A
1781599088252,4448,-11844,-5244,5,A
1781599088273,6284,-6200,-7704,5,A
1781599088294,-56,2352,-4020,5,A
1781599088316,-4924,4136,-1804,5,A
1781599088338,-4428,-764,-2236,5,A
1781599088360,-4612,-4856,-380,5,A
1781599088381,-4084,-2744,-1080,5,A
1781599088403,-4292,-8088,-2088,5,A
1781599088425,-1036,-18896,-3280,5,A
1781599088446,2688,-32768,1472,5,A
1781599088468,-1176,-32768,6252,5,A
1781599088489,864,-32768,1064,5,A
1781599088511,-7664,-25504,4320,5,A
1781599088532,-15860,-18056,5696,5,A
1781599088554,-8756,-16232,-588,5,A
1781599088576,-4056,-11556,-1352,5,A
1781599088597,-20,-7052,-1872,5,A
1781599088618,1684,-7244,-668,5,A
1781599088640,1936,-4984,432,5,A
1781599088662,4108,-6352,-2716,5,A
1781599088683,6144,-8040,-4780,5,A
1781599088705,4272,-1848,-4456,5,A
1781599088726,-1576,-6896,-144,5,A
1781599088748,-5516,-25256,4836,5,A
1781599088770,-8456,-32768,5556,5,A
1781599088792,-8928,-32768,6064,5,A
1781599088814,-5460,-32768,2976,5,A
1781599088835,-6076,-21152,3108,5,A
1781599088857,-3552,-15556,1304,5,A
1781599088878,-32,-10980,-2536,5,A
1781599088899,-124,-7132,-2748,5,A
1781599088921,-1848,-3164,-1436,5,A
1781599088944,-1060,-4576,-1688,5,A
1781599088965,756,-8540,-1796,5,A
1781599088987,572,-6984,-1852,5,A
1781599089008,-3832,-4856,612,5,A
1781599089030,-5744,-7676,916,5,A
1781599089050,-5172,-21196,28,5,A
1781599089072,1220,-32768,884,5,A
1781599089094,-892,-32768,3368,5,A
1781599089116,-3208,-32768,2432,5,A
1781599089137,-4912,-23536,1340,5,A
1781599089159,-7568,-13828,1720,5,A
1781599089181,-6792,-12236,700,5,A
1781599089203,-2452,-10140,-1548,5,A
1781599089224,-1968,-6788,-660,5,A
1781599089245,-2052,-7516,1464,5,A
1781599089267,-168,-8928,1824,5,A
1781599089289,1264,-9540,1836,5,A
1781599089311,2820,-7544,-1188,5,A
1781599089333,4364,-7744,-2972,5,A
1781599089353,4180,-11680,-4420,5,A
1781599089375,844,-18792,-2948,5,A
1781599089397,-2512,-32768,-1188,5,A
1781599089419,-10556,-32768,4292,5,A
1781599089441,-14316,-28056,6504,5,A
1781599089462,-7536,-18044,4208,5,A
1781599089483,-1360,-12820,576,5,A
1781599089505,3296,-11052,-3128,5,A
1781599089527,3268,-9156,-3348,5,A
1781599089549,-1988,-7276,1024,5,A
1781599089570,-1564,-8452,-92,5,A
1781599089592,-400,-10232,-1344,5,A
1781599089613,-1564,-8952,-2764,5,A
1781599089635,-2944,-8012,-3432,5,A
1781599089656,-6348,-9044,-2952,5,A
1781599089679,-5564,-17132,-2976,5,A
1781599089700,-4464,-26864,412,5,A
1781599089721,-4680,-32768,4600,5,A
1781599089743,-8184,-32768,9552,5,A
1781599089765,1016,-25480,1712,5,A
1781599089786,2132,-16844,-2556,5,A
1781599089808,-6072,-11900,-68,5,A
1781599089830,-11776,-10116,3852,5,A
1781599089851,-6660,-11368,112,5,A
1781599089873,-2628,-13392,-1084,5,A
1781599089895,-1344,-13108,-1116,5,A
1781599089916,2052,-11148,-2024,5,A
1781599089938,2356,-12172,-1884,5,A
1781599089959,1400,-6596,-1848,5,A
1781599089981,-472,-6816,-612,5,A
1781599090003,-1356,-11264,-76,5,A
1781599090025,-4048,-24476,4664,5,A
1781599090046,-6932,-32768,4304,5,A
1781599090068,-8928,-32768,6432,5,A
1781599090089,-4236,-25696,2716,5,A
1781599090111,-312,-15008,1508,5,A
1781599090133,4020,-12116,-3356,5,A
1781599090154,2000,-11988,-1420,5,A
1781599090176,-2864,-11672,1112,5,A
1781599090198,-2456,-10820,-1176,5,A
1781599090219,-1376,-9948,-2936,5,A
1781599090241,-3892,-7528,-1644,5,A
1781599090262,-4752,-8912,-1092,5,A
1781599090284,-3504,-9372,-1480,5,A
1781599090306,-1928,-11056,-2804,5,A
1781599090327,316,-15424,-2444,5,A
1781599090349,604,-18676,-2152,5,A
1781599090371,-4184,-26556,4160,5,A
1781599090393,-8116,-32768,7336,5,A
1781599090414,-5268,-29316,2500,5,A
1781599090435,-3856,-21348,1076,5,A
1781599090457,-4788,-17024,-160,5,A
1781599090479,-2864,-16024,-540,5,A
1781599090500,-5396,-10252,2960,5,A
1781599090522,-4688,-6108,2780,5,A
1781599090544,-1644,-8560,1776,5,A
1781599090565,508,-9692,400,5,A
1781599090586,-352,-10140,-176,5,A
1781599090608,1924,-11232,-4972,5,A
1781599090630,1688,-11140,-4752,5,A
1781599090653,-1436,-11792,-4420,5,A
1781599090673,-10176,-23536,2676,5,A
1781599090695,-9640,-32768,4172,5,A
1781599090717,-12304,-30944,8308,5,A
1781599090738,-7556,-22984,6468,5,A
1781599090760,-1556,-16936,2716,5,A
1781599090781,2656,-17136,-308,5,A
1781599090803,3996,-16512,-1536,5,A
1781599090825,868,-12064,-332,5,A
1781599090846,-2760,-8476,340,5,A
1781599090868,-3704,-5972,-12,5,A
1781599090889,-3620,-8268,-1068,5,A
1781599090911,-1364,-11240,-3120,5,A
1781599090933,-2700,-8520,-1080,5,A
1781599090955,-4984,-7704,740,5,A
1781599090976,-4084,-10656,440,5,A
1781599090998,-2428,-20012,-1660,5,A
1781599091019,-5140,-28664,2916,5,A
1781599091041,-12152,-27844,7368,5,A
1781599091063,-10672,-23964,6248,5,A
1781599091084,-7760,-18860,2400,5,A
1781599091106,-8608,-17924,2144,5,A
1781599091128,-6136,-16968,116,5,A
1781599091149,-3284,-14168,272,5,A
1781599091170,112,-12456,12,5,A
1781599091192,1812,-10592,488,5,A
1781599091213,3296,-9220,-684,5,A
1781599091235,5300,-9576,-3808,5,A
1781599091257,5440,-6608,-5164,5,A
1781599091279,336,-3460,-1736,5,A
1781599091300,-1776,-6788,-1264,5,A
1781599091322,-8016,-23284,3960,5,A
1781599091343,-6212,-32768,4212,5,A
1781599091366,-6124,-32768,3400,5,A
1781599091387,-8880,-29080,8036,5,A
1781599091409,-4220,-21580,5948,5,A
1781599091430,-172,-18888,2504,5,A
1781599091452,4440,-15140,-2200,5,A
1781599091473,3896,-10144,-2568,5,A
1781599091494,-448,-5076,4,5,A
1781599091516,-5472,-732,1836,5,A
1781599091538,-6052,-4068,352,5,A
1781599091560,-3524,-9672,-2096,5,A
1781599091581,-408,-10208,-4096,5,A
1781599091604,-2092,-8668,-3820,5,A
1781599091625,-3600,-10348,-2936,5,A
1781599091647,-7476,-18368,1904,5,A
1781599091668,-536,-32768,624,5,A
1781599091689,-184,-32768,3192,5,A
1781599091710,-3612,-31848,6148,5,A
1781599091733,-1976,-22116,2088,5,A
1781599091754,-7272,-16152,3248,5,A
1781599091776,-7428,-15120,1320,5,A
1781599091797,-5880,-15644,1236,5,A
1781599091819,-4596,-11852,1424,5,A
1781599091841,-1116,-9816,140,5,A
1781599091863,1328,-7864,-552,5,A
1781599091883,1496,-6600,-672,5,A
1781599091906,992,-8112,-216,5,A
1781599091927,1844,-7060,-2420,5,A
1781599091948,1936,-5472,-3328,5,A
1781599091970,-2524,-9376,-3712,5,A
1781599091992,-10184,-32768,1420,5,A
1781599092013,3968,-32768,-7268,5,A
1781599092036,-11300,-32768,5944,5,A
1781599092057,-8472,-19856,6232,5,A
1781599092078,-708,-16048,3224,5,A
1781599092100,6052,-16188,-1664,5,A
1781599092122,6936,-14076,-2132,5,A
1781599092144,2784,-10604,204,5,A
1781599092165,640,-5904,-1024,5,A
1781599092186,-624,-4520,-2492,5,A
1781599092209,-4804,-6456,-900,5,A
1781599092229,-5952,-8236,-764,5,A
1781599092252,-5464,-9728,-2424,5,A
1781599092273,-2944,-15160,-4660,5,A
1781599092295,-2200,-24208,-3208,5,A
1781599092316,4224,-31604,-2136,5,A
1781599092338,-3152,-28408,7716,5,A
1781599092359,-5696,-24716,8036,5,A
1781599092381,472,-20392,-452,5,A
1781599092403,-2456,-18392,-1184,5,A
1781599092425,-6152,-16072,-148,5,A
1781599092446,-5532,-14040,220,5,A
1781599092467,-1916,-11800,-444,5,A
1781599092489,2160,-8856,-1328,5,A
1781599092511,1324,-6068,708,5,A
1781599092532,988,-6616,428,5,A
1781599092554,5004,-6880,-3772,5,A
1781599092575,2532,-532,-3296,5,A
1781599092598,-2640,-12012,120,5,A
1781599092619,-1056,-32768,2464,5,A
1781599092640,-3784,-32768,4156,5,A
1781599092662,-12360,-32768,10672,5,A
1781599092684,196,-21668,3452,5,A
1781599092705,3184,-13760,2112,5,A
1781599092727,8492,-11476,-3480,5,A
1781599092748,7740,-8632,-3540,5,A
1781599092770,-136,-5440,1100,5,A
1781599092791,-2500,-5164,-116,5,A
1781599092814,-3912,-6664,-956,5,A
1781599092835,-2012,-7348,-2936,5,A
1781599092856,-3920,-5584,-1688,5,A
1781599092878,-7840,-12948,-524,5,A
1781599092899,-2048,-27936,-3344,5,A
1781599092921,2820,-32768,-336,5,A
1781599092943,-7112,-32004,10724,5,A
1781599092965,-4104,-24300,8068,5,A
1781599092986,1020,-16536,2408,5,A
1781599093008,2968,-13608,-1984,5,A
1781599093029,-1144,-13112,36,5,A
1781599093051,-7336,-13228,3204,5,A
1781599093073,-6844,-13384,2500,5,A
1781599093095,-2380,-13444,688,5,A
1781599093116,672,-10508,-72,5,A
1781599093138,2516,-8660,-516,5,A
1781599093159,316,-8380,1264,5,A
1781599093180,1088,-8616,116,5,A
1781599093202,3188,-6928,-2512,5,A
1781599093223,336,-11600,-1756,5,A
1781599093245,-3120,-32768,1480,5,A
1781599093267,2084,-32768,-2240,5,A
1781599093289,-13044,-29036,10156,5,A
1781599093310,-10216,-17780,7044,5,A
1781599093332,-1152,-11804,2752,5,A
1781599093354,7088,-15248,-3160,5,A
1781599093376,3380,-13284,-572,5,A
1781599093398,-4312,-10352,4032,5,A
1781599093419,-4568,-8732,2544,5,A
1781599093441,-1604,-7304,-416,5,A
1781599093463,-368,-10324,-1812,5,A
1781599093485,-2424,-13928,-1148,5,A
1781599093507,-3700,-15636,-1560,5,A
1781599093528,-968,-15324,-4256,5,A
1781599093549,44,-14892,-4228,5,A
1781599093571,-3032,-16848,-1244,5,A
1781599093594,-4820,-20516,3344,5,A
1781599093614,-6264,-19832,9664,5,A
1781599093636,-4204,-20436,9692,5,A
1781599093657,2532,-21832,3256,5,A
1781599093678,2072,-23624,-228,5,A
1781599093701,-2736,-26044,704,5,A
1781599093723,-7592,-17756,3000,5,A
1781599093743,-7736,-10128,1504,5,A
1781599093765,-4176,-8068,1076,5,A
1781599093787,-2228,-6752,-248,5,A
1781599093809,-224,-8116,652,5,A
1781599093830,4428,-7488,-1460,5,A
1781599093852,4956,-2496,-1780,5,A
1781599093874,564,-5668,1232,5,A
1781599093895,-7384,-25212,10144,5,A
1781599093917,-2328,-32768,2892,5,A
1781599093939,-6032,-32768,612,5,A
1781599093960,-10516,-23924,8108,5,A
1781599093982,-5420,-12272,4216,5,A
1781599094003,716,-12228,1524,5,A
1781599094025,4884,-11880,-1912,5,A
1781599094046,88,-8420,568,5,A
1781599094068,-1076,-4668,-484,5,A
1781599094090,-1316,-3220,-2444,5,A
1781599094111,-1604,-5016,-2384,5,A
1781599094133,-4040,-4344,-1676,5,A
1781599094155,-7652,-2636,808,5,A
1781599094176,-7300,-8068,1696,5,A
1781599094198,832,-21532,1788,5,A
1781599094219,3240,-30620,8676,5,A
1781599094241,-3168,-32768,12388,5,A
1781599094262,68,-32768,3392,5,A
1781599094285,-7412,-22344,1932,5,A
1781599094305,-11760,-7868,2988,5,A
1781599094328,-11744,-6528,3124,5,A
1781599094349,-6404,-6276,1056,5,A
1781599094370,-484,-8080,-744,5,A
1781599094392,2152,-10636,-744,5,A
1781599094413,2232,-7420,-56,5,A
1781599094435,-36,-3868,1316,5,A
1781599094457,1340,-1312,148,5,A
1781599094478,2124,-4216,-1876,5,A
1781599094500,-4944,-20448,3108,5,A
1781599094522,-2628,-32768,2684,5,A
1781599094543,-6620,-32768,4148,5,A
1781599094565,-8612,-31292,6720,5,A
1781599094586,-5128,-18600,5836,5,A
1781599094608,-64,-11048,3616,5,A
1781599094630,2096,-9960,-40,5,A
1781599094651,2148,-7464,-804,5,A
1781599094672,-1904,-6320,424,5,A
1781599094694,-4292,-8092,40,5,A
1781599094716,-3532,-9012,-1336,5,A
1781599094738,-3140,-9908,-2080,5,A
1781599094759,-4208,-10856,-4,5,A
1781599094781,-5568,-12680,1032,5,A
1781599094802,-2780,-19456,-836,5,A
1781599094824,5176,-26776,-3080,5,A
1781599094846,-748,-27952,4284,5,A
1781599094867,-4684,-27320,9260,5,A
1781599094889,-1016,-24136,6116,5,A
1781599094910,2848,-17188,1964,5,A
1781599094932,876,-14980,1868,5,A
1781599094954,-2280,-14744,3244,5,A
1781599094975,-3692,-13504,4152,5,A
1781599094997,-1836,-12156,2944,5,A
1781599095019,1544,-11916,952,5,A
1781599095040,3860,-10748,-1500,5,A
1781599095062,2824,-10064,-1852,5,A
1781599095083,392,-10636,-1352,5,A
1781599095105,1408,-10612,-3132,5,A
1781599095126,-824,-10940,-1860,5,A
1781599095148,-320,-11908,-356,5,A
1781599095171,-7008,-18276,6152,5,A
1781599095191,-3652,-32768,2268,5,A
1781599095213,-1716,-32768,1632,5,A
1781599095235,-7464,-27896,6052,5,A
1781599095256,-6796,-13396,5720,5,A
1781599095278,-3284,-8052,4212,5,A
1781599095299,288,-10112,2272,5,A
1781599095321,2900,-12044,1144,5,A
1781599095343,1512,-14120,2080,5,A
1781599095364,1512,-13920,616,5,A
1781599095386,1540,-13348,-852,5,A
1781599095407,-832,-13652,-284,5,A
1781599095429,-1568,-13232,-632,5,A
1781599095451,-988,-14104,-160,5,A
1781599095472,1444,-13636,-1388,5,A
1781599095494,3012,-14364,-2148,5,A
1781599095515,2848,-12640,-888,5,A
1781599095537,-2688,-15604,3432,5,A
1781599095559,-6616,-23840,8748,5,A
1781599095580,-9600,-27456,14280,5,A
1781599095601,532,-26612,6524,5,A
1781599095623,1944,-24924,3652,5,A
1781599095645,-636,-20400,3272,5,A
1781599095666,-3132,-15672,2848,5,A
1781599095688,-4348,-9084,3040,5,A
1781599095710,-2860,-4976,1636,5,A
1781599095731,120,-5092,4,5,A
1781599095753,4528,-8884,-2832,5,A
1781599095774,6096,-10344,-2964,5,A
1781599095797,6584,-19940,-2556,5,A
1781599095817,9292,-28968,-5380,5,A
1781599095839,-2912,-26432,2952,5,A
1781599095861,-20568,-17856,14088,5,A
1781599095882,-8144,-16836,9996,5,A
1781599095904,1256,-18444,760,5,A
1781599095926,3492,-18680,-544,5,A
1781599095947,652,-16488,1788,5,A
1781599095969,-1984,-12632,3764,5,A
1781599095990,228,-9084,1756,5,A
1781599096012,572,-7456,572,5,A
1781599096034,-208,-10572,916,5,A
1781599096055,-324,-13120,720,5,A
1781599096077,448,-14924,-160,5,A
1781599096099,396,-16572,-248,5,A
1781599096119,248,-16932,96,5,A
1781599096142,2344,-16696,-1452,5,A
1781599096163,1600,-17496,-784,5,A
1781599096185,-5368,-21516,5692,5,A
1781599096207,-10844,-24468,11592,5,A
1781599096229,-3040,-23044,8272,5,A
1781599096251,2148,-21512,4872,5,A
1781599096271,2984,-18036,1536,5,A
1781599096294,-2204,-14900,3724,5,A
1781599096315,-3444,-12372,3476,5,A
1781599096336,-4800,-9764,4556,5,A
1781599096358,-3296,-10136,3984,5,A
1781599096379,356,-11068,1028,5,A
1781599096401,1084,-11088,-1092,5,A
1781599096423,1168,-11660,-2752,5,A
1781599096444,784,-12620,-3716,5,A
1781599096466,2104,-10164,-5068,5,A
1781599096488,1256,-5408,-3532,5,A
1781599096510,-5240,-4344,2700,5,A
1781599096531,-11384,-31676,10392,5,A
1781599096552,-21616,-32768,17776,5,A
1781599096575,-8180,-32768,9052,5,A
1781599096596,-1992,-30036,5636,5,A
1781599096617,204,-20696,4352,5,A
1781599096639,2460,-12916,1384,5,A
1781599096660,-652,-4808,880,5,A
1781599096682,-284,944,-916,5,A
1781599096704,4632,2104,-6880,5,A
1781599096725,3976,948,-7008,5,A
1781599096747,-4584,2692,-1536,5,A
1781599096768,-8380,-128,572,5,A
1781599096790,-4264,-4908,544,5,A
1781599096812,4512,-10948,-1988,5,A
1781599096833,9504,-27004,-176,5,A
1781599096855,3856,-32768,7248,5,A
1781599096877,-10784,-32768,14620,5,A
1781599096898,-14240,-32768,9996,5,A
1781599096920,-18944,-26532,8140,5,A
1781599096942,-22672,-26024,6184,5,A
1781599096963,-9712,-25656,1452,5,A
1781599096984,-836,-17908,804,5,A
1781599097006,3896,-13336,732,5,A
1781599097028,6416,-7968,-196,5,A
1781599097050,7732,-1696,-1160,5,A
1781599097071,7896,5340,-2464,5,A
1781599097092,7576,7328,-3752,5,A
1781599097114,7104,7488,-5632,5,A
1781599097136,-824,2040,-1548,5,A
1781599097156,-7280,-6932,436,5,A
1781599097179,-4840,-20580,-556,5,A
1781599097201,3972,-30440,-3136,5,A
1781599097222,-7292,-32768,4660,5,A
1781599097244,-14900,-32768,14908,5,A
1781599097266,-5932,-32768,12808,5,A
1781599097287,-1044,-30060,7024,5,A
1781599097309,8316,-23432,-3436,5,A
1781599097330,2792,-12388,-1280,5,A
1781599097352,-4228,-4996,1912,5,A
1781599097373,-2024,352,-1300,5,A
1781599097395,-3172,-1620,-4156,5,A
1781599097417,-552,1196,-5684,5,A
1781599097438,-5472,2176,-1720,5,A
1781599097460,-7384,3704,-452,5,A
1781599097482,-2360,692,-1280,5,A
1781599097503,3720,-1360,-1408,5,A
1781599097525,140,-15676,1088,5,A
1781599097546,3216,-29336,4172,5,A
1781599097568,2672,-32768,1840,5,A
1781599097590,-8496,-32768,6636,5,A
1781599097611,-13672,-32768,6836,5,A
1781599097633,-20600,-27384,8656,5,A
1781599097654,-19004,-20044,8688,5,A
1781599097676,-7492,-21460,3188,5,A
1781599097698,1804,-17268,-168,5,A
1781599097719,3156,-10640,-348,5,A
1781599097741,5556,-4716,-1088,5,A
1781599097763,7344,-1160,-2076,5,A
1781599097784,6324,4132,-1592,5,A
1781599097805,1624,7416,-168,5,A
1781599097827,-344,4640,-140,5,A
1781599097849,1920,-2268,-2340,5,A
1781599097870,-1392,-8640,-184,5,A
1781599097892,-3108,-18624,-388,5,A
1781599097914,504,-29560,-1652,5,A
1781599097936,-16676,-32768,12936,5,A
1781599097957,-27016,-32768,22008,5,A
1781599097979,-912,-32768,9836,5,A
1781599098001,6068,-31488,5832,5,A
1781599098022,2148,-27916,3260,5,A
1781599098044,-1904,-26492,5036,5,A
1781599098065,-3176,-19196,3668,5,A
1781599098088,-3904,-7568,-76,5,A
1781599098109,-368,-1464,-5892,5,A
1781599098131,-400,2624,-7220,5,A
1781599098152,-3560,2184,-2548,5,A
1781599098173,-6456,4660,-820,5,A
1781599098195,-7960,3404,908,5,A
1781599098216,-3008,1416,-1516,5,A
1781599098238,2932,-3556,-4176,5,A
1781599098260,2344,-13296,-1076,5,A
1781599098281,-1280,-21980,2344,5,A
1781599098303,-3484,-32768,4796,5,A
1781599098325,-8720,-32768,7264,5,A
1781599098347,-14592,-32768,4928,5,A
1781599098369,-19040,-20056,5128,5,A
1781599098390,-25208,-21084,9224,5,A
1781599098411,-12724,-23400,4700,5,A
1781599098433,-4776,-22164,1920,5,A
1781599098454,-1776,-18376,784,5,A
1781599098476,1316,-14216,644,5,A
1781599098498,5852,-8292,-1656,5,A
1781599098519,6304,1520,-2504,5,A
1781599098541,3128,11396,-2028,5,A
1781599098562,1560,13812,-596,5,A
1781599098583,-984,4264,1700,5,A
1781599098606,-1952,-5900,3496,5,A
1781599098627,4876,-12260,-1752,5,A
1781599098649,6644,-16824,-5012,5,A
1781599098670,1548,-20904,-996,5,A
1781599098692,-25244,-32768,21880,5,A
1781599098714,-20244,-32768,14564,5,A
1781599098735,1644,-32768,2360,5,A
1781599098757,2824,-32768,5336,5,A
1781599098779,-6220,-21684,7720,5,A
1781599098800,-1972,-14160,3060,5,A
1781599098822,1108,-6508,-1376,5,A
1781599098843,3720,608,-4476,5,A
1781599098866,-84,6148,-5156,5,A
1781599098887,-4880,6508,-1428,5,A
1781599098908,-3940,5192,-4100,5,A
1781599098931,-4300,3028,-3380,5,A
1781599098951,-6076,188,4,5,A
1781599098974,-3592,-6612,-1268,5,A
1781599098995,404,-15252,-2476,5,A
1781599099017,-232,-27520,3396,5,A
1781599099038,-6072,-32768,8700,5,A
1781599099060,-15340,-32768,9684,5,A
1781599099083,-17140,-32768,7408,5,A
1781599099105,-19256,-31172,8584,5,A
1781599099126,-16556,-23392,9804,5,A
1781599099148,-2368,-19244,2092,5,A
1781599099169,1572,-15828,-304,5,A
1781599099190,3016,-9896,-1396,5,A
1781599099213,2504,-5888,-84,5,A
1781599099234,4584,80,-1196,5,A
1781599099255,5000,7100,-2228,5,A
1781599099277,3532,10236,-2416,5,A
1781599099300,836,5372,-1580,5,A
1781599099320,-1892,-812,108,5,A
1781599099342,-3928,-5260,1768,5,A
1781599099363,260,-10548,-1576,5,A
1781599099385,-660,-19840,300,5,A
1781599099407,-2080,-32580,3484,5,A
1781599099428,-5320,-32768,8580,5,A
1781599099450,-5684,-32768,8360,5,A
1781599099472,-5440,-32768,7440,5,A
1781599099494,-6596,-27332,6072,5,A
1781599099515,-4412,-21716,2656,5,A
1781599099537,-6820,-17232,2464,5,A
1781599099558,-8068,-9132,2712,5,A
1781599099580,-2384,-892,-16,5,A
1781599099601,704,3800,-2848,5,A
1781599099624,-592,2728,-1548,5,A
1781599099645,-3876,1292,-1472,5,A
1781599099666,-8760,-100,952,5,A
1781599099688,-5948,-1648,332,5,A
1781599099709,-828,-1520,-3304,5,A
1781599099731,-2864,-7964,-1640,5,A
1781599099752,-208,-20840,12,5,A
1781599099774,2704,-31168,3304,5,A
1781599099796,-9504,-32768,9384,5,A
1781599099818,-12820,-32768,7816,5,A
1781599099840,-9260,-28864,1036,5,A
1781599099861,-18076,-18972,5376,5,A
1781599099883,-16412,-20168,5804,5,A
1781599099904,-11664,-20008,4744,5,A
1781599099926,-5704,-16988,2340,5,A
1781599099947,-416,-13784,560,5,A
1781599099969,936,-6856,-48,5,A
1781599099990,148,-632,764,5,A
1781599100012,124,-180,676,5,A
1781599100034,3676,-1468,-1776,5,A
1781599100056,4604,-836,-984,5,A
1781599100076,832,-644,2732,5,A
1781599100098,2564,-5784,1936,5,A
1781599100121,6692,-19492,-3784,5,A
1781599100142,-4780,-32768,7960,5,A
1781599100163,-19664,-32768,12436,5,A
1781599100185,-10984,-32768,2780,5,A
1781599100206,-15444,-17020,4328,5,A
1781599100228,-7768,-3136,3300,5,A
1781599100250,2164,-2076,-4120,5,A
1781599100271,5016,536,-5452,5,A
1781599100293,6568,2132,-4508,5,A
1781599100315,-5168,5744,2884,5,A
1781599100336,-9520,8704,1844,5,A
1781599100358,-6448,-708,-1192,5,A
1781599100379,-2328,-2532,-1540,5,A
1781599100401,-4192,-9104,-1888,5,A
1781599100423,3616,-19844,-4808,5,A
1781599100444,-3804,-32768,4128,5,A
1781599100466,-17744,-32768,10092,5,A
1781599100487,-22556,-32768,9860,5,A
1781599100510,-9264,-32768,-2604,5,A
1781599100532,-10804,-19440,3848,5,A
1781599100552,-8092,-9116,3744,5,A
1781599100574,-848,-4324,-820,5,A
1781599100595,1796,-2516,-1836,5,A
1781599100616,3184,1840,296,5,A
1781599100639,7920,5908,-800,5,A
1781599100660,9184,8552,-1212,5,A
1781599100682,5068,5712,-1088,5,A
1781599100704,792,-4728,-460,5,A
1781599100725,-2564,-11344,1068,5,A
1781599100746,-4332,-11260,2108,5,A
1781599100769,-6716,-20736,2676,5,A
1781599100790,-11996,-32768,3328,5,A
1781599100812,-29996,-32768,19700,5,A
1781599100833,-14640,-32768,11752,5,A
1781599100856,-5420,-32768,7800,5,A
1781599100876,-568,-22916,2600,5,A
1781599100898,-2204,-16000,652,5,A
1781599100920,-2092,-4572,1696,5,A
1781599100941,-2796,5504,496,5,A
1781599100962,3272,8204,-5236,5,A
1781599100985,3220,1884,-2248,5,A
1781599101006,68,3976,-4276,5,A
1781599101027,-5440,504,-260,5,A
1781599101049,-5972,-4252,2244,5,A
1781599101071,-2596,-12284,904,5,A
1781599101092,-1452,-26868,-240,5,A
1781599101114,-9296,-32768,10060,5,A
1781599101136,-11868,-32768,7068,5,A
1781599101159,-21216,-31724,10392,5,A
1781599101179,-18372,-21044,4432,5,A
1781599101201,-16192,-16036,6036,5,A
1781599101222,-9272,-17040,4376,5,A
1781599101244,-1940,-16344,3684,5,A
1781599101266,324,-11236,1436,5,A
1781599101287,128,-5880,664,5,A
1781599101308,592,-1284,-272,5,A
1781599101330,4084,2924,-1488,5,A
1781599101352,6828,3032,-3668,5,A
1781599101373,4276,1656,-1740,5,A
1781599101395,-1768,-6160,1980,5,A
1781599101417,-4792,-19828,5908,5,A
1781599101439,-7660,-32768,10044,5,A
1781599101460,-14184,-32768,13992,5,A
1781599101481,-4740,-32768,8036,5,A
1781599101503,-6952,-31408,6420,5,A
1781599101525,-7900,-14332,5368,5,A
1781599101547,-4212,-4748,-64,5,A
1781599101567,936,-2196,-4068,5,A
1781599101590,176,-1400,-1576,5,A
1781599101610,-3804,3088,-932,5,A
1781599101632,-5556,7508,220,5,A
1781599101655,-160,3268,-2780,5,A
1781599101676,1220,1116,-1824,5,A
1781599101697,324,-3464,-128,5,A
1781599101720,-2212,-11120,1844,5,A
1781599101740,-1028,-19332,368,5,A
1781599101762,3496,-32768,2804,5,A
1781599101784,1280,-32768,2624,5,A
1781599101805,-12788,-32768,8300,5,A
1781599101827,-20376,-30668,5480,5,A
1781599101848,-26448,-20856,5060,5,A
1781599101871,-27096,-18756,8832,5,A
1781599101892,-9728,-20848,4308,5,A
1781599101913,-3008,-15212,3732,5,A
1781599101935,-1736,-7392,4024,5,A
1781599101956,408,-3032,2900,5,A
1781599101978,3528,-672,1660,5,A
1781599102000,6180,3828,-1516,5,A
1781599102021,6848,4756,-2508,5,A
1781599102043,812,2368,60,5,A
1781599102065,-652,-5280,1560,5,A
1781599102086,1960,-10960,872,5,A
1781599102108,244,-25064,1616,5,A
1781599102130,-10076,-32768,5156,5,A
1781599102151,-32720,-32768,23476,5,A
1781599102173,-21004,-32768,11096,5,A
1781599102194,2020,-28684,-1032,5,A
1781599102217,-12788,-18036,10972,5,A
1781599102237,-10256,-8904,6052,5,A
1781599102260,-1536,-1268,-2568,5,A
1781599102280,-672,-180,-1360,5,A
1781599102302,-2724,7132,-1136,5,A
1781599102325,-3456,5052,-3188,5,A
1781599102346,-6956,5728,-2896,5,A
1781599102368,-9524,1944,2080,5,A
1781599102389,-3236,-2696,-1508,5,A
1781599102411,6060,-8376,-4032,5,A
1781599102432,11648,-22036,-3888,5,A
1781599102454,11240,-30316,-2040,5,A
1781599102475,5196,-32768,-840,5,A
1781599102497,-2080,-32768,-616,5,A
1781599102518,-12264,-31580,2736,5,A
1781599102541,-15556,-24420,4476,5,A
1781599102562,-8072,-28468,4336,5,A
1781599102583,1976,-23128,1600,5,A
1781599102605,5728,-14568,-444,5,A
1781599102627,3180,-8568,-204,5,A
1781599102648,852,-3088,-808,5,A
1781599102670,-4204,5868,1568,5,A
1781599102692,-1640,6612,328,5,A
1781599102713,-1892,3564,-44,5,A
1781599102735,2012,-4504,-988,5,A
1781599102756,3984,-11244,-2060,5,A
1781599102777,1352,-16356,-580,5,A
1781599102800,1080,-30508,-2324,5,A
1781599102821,-3072,-32768,-1056,5,A
1781599102843,-5748,-32768,4804,5,A
1781599102864,-7688,-32768,10168,5,A
1781599102886,-1068,-24348,1448,5,A
1781599102908,7988,-13412,-7960,5,A
1781599102929,5116,-5352,-7748,5,A
1781599102951,-992,-1220,-1768,5,A
1781599102972,-5024,1316,-352,5,A
1781599102993,-4460,-4384,2364,5,A
1781599103016,-4768,2704,2180,5,A
1781599103037,-4224,3904,1944,5,A
1781599103060,-2072,-4800,1016,5,A
1781599103081,-456,-14676,1044,5,A
1781599103103,-2444,-17004,3488,5,A
1781599103124,9520,-32768,-2668,5,A
1781599103145,5220,-32768,-2092,5,A
1781599103167,1884,-32768,2224,5,A
1781599103189,4496,-32768,68,5,A
1781599103211,2720,-32768,-2980,5,A
1781599103232,2836,-30684,-5476,5,A
1781599103254,5632,-13544,-9220,5,A
1781599103276,-2396,-3680,-2796,5,A
1781599103297,-3140,860,-2320,5,A
1781599103319,-1296,-1644,-2276,5,A
1781599103340,-2528,-356,1832,5,A
1781599103362,-4204,3540,4516,5,A
1781599103383,-4132,2504,5536,5,A
1781599103404,1488,-4524,2980,5,A
1781599103426,6044,-7200,-32,5,A
1781599103448,2052,-8280,3628,5,A
1781599103469,704,-22216,6784,5,A
1781599103490,13496,-32768,-6664,5,A
1781599103512,11780,-32768,-2168,5,A
1781599103534,3008,-32768,6148,5,A
1781599103556,-332,-32768,5924,5,A
1781599103577,-4404,-28624,5124,5,A
1781599103600,4712,-16044,-2040,5,A
1781599103621,4560,-7916,-6160,5,A
1781599103642,-2872,3984,-1356,5,A
1781599103664,-4680,9552,580,5,A
1781599103685,-368,8740,-2920,5,A
1781599103707,2848,3040,-4344,5,A
1781599103729,-428,-1256,-2096,5,A
1781599103750,-7308,-3992,4056,5,A
1781599103772,-10012,-7832,5612,5,A
1781599103794,-4332,-24076,1272,5,A
1781599103815,-5136,-32768,9496,5,A
1781599103837,-8232,-32768,5880,5,A
1781599103858,1204,-32768,-180,5,A
1781599103880,7060,-32768,-5264,5,A
1781599103902,-1200,-32768,668,5,A
1781599103924,-1804,-25348,1624,5,A
1781599103945,2852,-20036,-352,5,A
1781599103967,4960,-5628,-1432,5,A
1781599103989,2104,5680,-800,5,A
1781599104010,292,8880,1624,5,A
1781599104031,824,12668,1672,5,A
1781599104053,1048,12640,3308,5,A
1781599104074,240,12572,4528,5,A
1781599104096,-84,-552,3888,5,A
1781599104118,384,-10320,2676,5,A
1781599104140,-8816,-32768,4056,5,A
1781599104161,-11892,-32768,5340,5,A
1781599104183,-15740,-32768,7216,5,A
1781599104204,-6072,-32768,372,5,A
1781599104226,240,-27756,-1896,5,A
1781599104248,-3280,-14688,-444,5,A
1781599104270,-2184,-6116,-180,5,A
1781599104291,468,4680,-1164,5,A
1781599104312,1312,14216,-212,5,A
1781599104334,2108,19020,1380,5,A
1781599104356,2992,17768,1060,5,A
1781599104377,-1172,11656,3208,5,A
1781599104399,-12380,-2572,7648,5,A
1781599104421,-5128,-22360,-2096,5,A
1781599104442,-3268,-32768,-6264,5,A
1781599104463,-12156,-32768,1144,5,A
1781599104486,-3588,-32768,-1084,5,A
1781599104507,5380,-32768,-6604,5,A
1781599104529,-5220,-20080,-704,5,A
1781599104550,-5376,-14640,-100,5,A
1781599104572,1048,-9688,-1596,5,A
1781599104594,3048,-1760,-956,5,A
1781599104615,-420,7452,4020,5,A
1781599104636,400,15616,4784,5,A
1781599104658,2068,18332,4280,5,A
1781599104680,2844,10112,2108,5,A
1781599104701,-424,2876,-56,5,A
1781599104723,-10496,-15632,3468,5,A
1781599104744,-8308,-32768,-3988,5,A
1781599104766,12968,-32768,-18556,5,A
1781599104788,-244,-32768,-5792,5,A
1781599104810,-7132,-32768,-1840,5,A
1781599104832,-1888,-29408,-6344,5,A
1781599104854,-1124,-20672,-4244,5,A
1781599104876,-4556,-12752,1324,5,A
1781599104897,-568,-2548,812,5,A
1781599104919,-1916,1448,3084,5,A
1781599104941,3744,6436,1368,5,A
1781599104962,1876,10392,2008,5,A
1781599104984,512,12520,4176,5,A
1781599105004,-1140,9580,4240,5,A
1781599105027,-1496,1544,904,5,A
1781599105049,-524,-20500,-4156,5,A
1781599105070,-4268,-32768,-1848,5,A
1781599105092,3884,-32768,-8148,5,A
1781599105114,4728,-32768,-7552,5,A
1781599105136,940,-32768,-6720,5,A
1781599105157,-4996,-32768,-2124,5,A
1781599105178,-6092,-20208,1192,5,A
1781599105200,-1236,-11536,-512,5,A
1781599105221,608,-3352,-400,5,A
1781599105242,-128,3888,2832,5,A
1781599105265,-816,12704,4828,5,A
1781599105286,1664,15744,3884,5,A
1781599105307,4000,15444,-44,5,A
1781599105328,400,9740,748,5,A
1781599105351,-6052,1224,1640,5,A
1781599105372,-12580,-24592,3860,5,A
1781599105394,2944,-32768,-10116,5,A
1781599105416,14564,-32768,-14112,5,A
1781599105438,4100,-32768,-2620,5,A
1781599105459,2512,-32768,-4224,5,A
1781599105481,-1008,-26704,-2968,5,A
1781599105502,-3588,-17580,472,5,A
1781599105523,-2092,-8900,720,5,A
1781599105545,948,-4004,-364,5,A
1781599105567,2548,3288,1568,5,A
1781599105589,1052,7600,3392,5,A
1781599105609,2020,9984,3572,5,A
1781599105631,-708,11236,4300,5,A
1781599105654,-1116,6212,3044,5,A
1781599105674,-4232,-4156,1848,5,A
1781599105696,3976,-22800,-5660,5,A
1781599105719,11668,-32156,-10944,5,A
1781599105740,-3560,-32768,-3836,5,A
1781599105761,-17644,-32768,9696,5,A
1781599105783,-9432,-32768,6512,5,A
1781599105805,-4456,-31932,-6372,5,A
1781599105826,-9128,-19576,-12,5,A
1781599105847,-7156,-15868,3368,5,A
1781599105869,-1424,-8044,84,5,A
1781599105891,2044,-1244,-332,5,A
1781599105913,-228,5224,2740,5,A
1781599105934,-3892,4296,5140,5,A
1781599105956,1116,8100,3056,5,A
1781599105978,5724,5856,104,5,A
1781599105998,5552,2824,-3192,5,A
1781599106021,-3924,-3900,1732,5,A
1781599106043,-6944,-20332,2880,5,A
1781599106064,5300,-32768,-7296,5,A
1781599106085,6712,-32768,-7864,5,A
1781599106107,1688,-32768,-2720,5,A
1781599106129,2060,-32768,-3272,5,A
1781599106150,-1012,-32768,-2268,5,A
1781599106172,-2660,-24064,-672,5,A
1781599106194,808,-16504,-2536,5,A
1781599106215,3604,-9036,-1812,5,A
1781599106236,2204,-2104,308,5,A
1781599106259,-2604,3896,5828,5,A
1781599106280,-1284,8336,5588,5,A
1781599106301,-548,9692,6116,5,A
1781599106323,932,9356,2384,5,A
1781599106344,-1256,2984,1020,5,A
1781599106367,-5016,-11476,1392,5,A
1781599106388,-1016,-31892,-4116,5,A
1781599106410,13392,-32768,-13112,5,A
1781599106431,13608,-32768,-12428,5,A
1781599106453,2268,-32768,-3580,5,A
1781599106475,-3896,-32768,140,5,A
1781599106496,-5412,-26240,2692,5,A
1781599106517,2004,-16228,-1672,5,A
1781599106539,3584,-9280,-1192,5,A
1781599106560,1660,-2076,596,5,A
1781599106582,-400,2912,3628,5,A
1781599106605,-1792,8356,5748,5,A
1781599106625,-1656,11304,5808,5,A
1781599106647,-352,10064,4884,5,A
1781599106668,660,7152,2236,5,A
1781599106690,-3636,-1936,1740,5,A
1781599106713,-468,-22888,-2936,5,A
1781599106734,14216,-32768,-12716,5,A
1781599106755,7804,-32768,-6324,5,A
1781599106777,2344,-32768,-2284,5,A
1781599106799,6540,-32768,-5572,5,A
1781599106820,1052,-25644,-2608,5,A
1781599106842,-4348,-19272,2012,5,A
1781599106863,-896,-8496,1724,5,A
1781599106885,1224,-2400,1860,5,A
1781599106906,1268,1096,3808,5,A
1781599106928,876,5192,5052,5,A
1781599106950,-280,6904,6564,5,A
1781599106971,1508,8864,3212,5,A
1781599106993,-300,4668,2116,5,A
1781599107014,-2784,-8088,1500,5,A
1781599107036,3192,-27124,-3048,5,A
1781599107058,9236,-32768,-7128,5,A
1781599107079,9200,-32768,-6000,5,A
1781599107101,6704,-32768,-4596,5,A
1781599107124,3476,-32768,-2896,5,A
1781599107144,-532,-25900,328,5,A
1781599107166,-2604,-17676,1180,5,A
1781599107187,-88,-8556,984,5,A
1781599107209,-332,-584,2584,5,A
1781599107230,-1280,4176,5368,5,A
1781599107252,-2208,6692,6508,5,A
1781599107274,-1224,11208,4720,5,A
1781599107295,2040,9156,688,5,A
1781599107317,2496,4672,-840,5,A
1781599107339,828,-4624,-2444,5,A
1781599107360,-3016,-29220,-264,5,A
1781599107382,8080,-32768,-9100,5,A
1781599107403,21272,-32768,-11696,5,A
1781599107425,12644,-32768,-8800,5,A
1781599107447,528,-32768,-2804,5,A
1781599107469,-4736,-29820,1200,5,A
1781599107490,-3968,-19512,-88,5,A
1781599107511,-976,-7476,-1048,5,A
1781599107533,2632,252,-1724,5,A
1781599107554,452,9248,2216,5,A
1781599107576,1260,12928,3936,5,A
1781599107598,1812,14716,4180,5,A
1781599107619,-1908,11180,5872,5,A
1781599107641,-2380,6484,3808,5,A
1781599107662,-4696,1624,1740,5,A
1781599107684,-40,-21380,-5612,5,A
1781599107707,2200,-32768,-6324,5,A
1781599107727,13648,-32768,-12280,5,A
1781599107749,11320,-32768,-6176,5,A
1781599107770,144,-32768,-224,5,A
1781599107792,-6452,-32768,2004,5,A
1781599107814,-5044,-25628,1916,5,A
1781599107836,-1060,-15488,-1068,5,A
1781599107857,588,-7428,-600,5,A
1781599107879,1132,1704,756,5,A
1781599107900,300,4376,4072,5,A
1781599107922,-192,10212,5532,5,A
1781599107944,-440,11684,4608,5,A
1781599107965,440,9068,2608,5,A
1781599107987,2828,3700,-2772,5,A
1781599108009,-1756,-13664,-1364,5,A
1781599108030,-5180,-32768,536,5,A
1781599108051,9368,-32768,-8296,5,A
1781599108073,20900,-32768,-14344,5,A
1781599108094,7772,-32768,-4968,5,A
1781599108116,-1476,-32768,-424,5,A
1781599108138,-2816,-26124,1420,5,A
1781599108160,588,-14800,-156,5,A
1781599108181,1756,-5052,120,5,A
1781599108202,-1108,1920,3960,5,A
1781599108224,-1596,6892,5940,5,A
1781599108246,208,10676,5096,5,A
1781599108267,1956,11524,2716,5,A
1781599108289,1016,10420,2116,5,A
1781599108310,-3384,2636,2068,5,A
1781599108332,-4620,-13900,-212,5,A
1781599108354,7280,-32768,-7896,5,A
1781599108376,17188,-32768,-9520,5,A
1781599108397,12572,-32768,-4084,5,A
1781599108419,2076,-32768,1840,5,A
1781599108440,-5412,-29860,4552,5,A
1781599108462,-5752,-23496,4792,5,A
1781599108484,-2724,-13992,3612,5,A
1781599108505,-1008,-7648,2832,5,A
1781599108527,-1004,-1116,3448,5,A
1781599108548,-16,6212,3676,5,A
1781599108569,1216,10344,4380,5,A
1781599108591,2520,10912,2852,5,A
1781599108613,2712,8540,512,5,A
1781599108634,1884,4284,-1716,5,A
1781599108656,-2440,-8832,-452,5,A
1781599108678,-3868,-29560,-1280,5,A
1781599108700,2692,-32768,-3340,5,A
1781599108721,15020,-32768,-7548,5,A
1781599108743,8668,-32768,-3000,5,A
1781599108764,-3948,-32232,2620,5,A
1781599108786,-14724,-28532,9744,5,A
1781599108807,-2108,-18692,4720,5,A
1781599108829,864,-6228,1020,5,A
1781599108850,192,772,3060,5,A
1781599108872,-1784,7104,5504,5,A
1781599108894,-2400,10836,7200,5,A
1781599108915,-2428,11228,5276,5,A
1781599108936,2608,8936,676,5,A
1781599108958,2992,-2592,-3004,5,A
1781599108980,1600,-23604,-2600,5,A
1781599109002,2216,-32768,-1628,5,A
1781599109023,9348,-32768,-3320,5,A
1781599109045,10408,-32768,-2604,5,A
1781599109067,1156,-32768,2396,5,A
1781599109088,-6108,-21548,6836,5,A
1781599109110,-5436,-14680,6348,5,A
1781599109131,-5236,-14488,8268,5,A
1781599109153,-2020,-4712,3712,5,A
1781599109174,240,92,4404,5,A
1781599109196,904,3304,4352,5,A
1781599109218,-2344,5852,6188,5,A
1781599109239,1128,6988,2664,5,A
1781599109260,376,5076,872,5,A
1781599109282,2176,-1864,-3672,5,A
1781599109304,-200,-19836,-2004,5,A
1781599109326,2432,-31420,-3956,5,A
1781599109347,4276,-32768,-120,5,A
1781599109369,7304,-32768,76,5,A
1781599109390,5960,-32768,808,5,A
1781599109412,5380,-32768,740,5,A
1781599109433,7612,-30600,-628,5,A
1781599109455,6984,-24356,-1696,5,A
1781599109476,4804,-15448,-536,5,A
1781599109498,1636,-3768,2132,5,A
1781599109520,1696,2108,2104,5,A
1781599109541,-1444,9964,5372,5,A
1781599109563,-2536,10508,4660,5,A
1781599109584,-1192,9972,3684,5,A
1781599109605,776,2076,-532,5,A
1781599109627,6796,-12428,-4460,5,A
1781599109649,6792,-18656,-3488,5,A
1781599109671,-1856,-27080,3920,5,A
1781599109692,-5036,-32768,8448,5,A
1781599109713,10968,-32768,-1636,5,A
1781599109735,9108,-32768,2356,5,A
1781599109757,2204,-30200,4572,5,A
1781599109779,256,-20988,3668,5,A
1781599109800,-3324,-16728,5988,5,A
1781599109821,824,-8412,2000,5,A
1781599109844,968,-5392,2460,5,A
1781599109864,1700,36,2160,5,A
1781599109886,1932,3928,1220,5,A
1781599109908,5060,5968,-2304,5,A
1781599109930,4956,116,-3300,5,A
1781599109951,2244,-11148,-1516,5,A
1781599109972,9776,-21724,-3612,5,A
1781599109994,-6336,-3268,-4500,5,A
1781599110017,-3636,-27712,2920,5,A
1781599110038,-1160,-32768,3828,5,A
1781599110059,4916,-32768,660,5,A
1781599110081,12124,-30664,-4596,5,A
1781599110102,4512,-20420,452,5,A
1781599110123,1008,-23620,3740,5,A
1781599110145,3860,-18616,808,5,A
1781599110167,8312,-9044,-1696,5,A
1781599110188,4540,-2596,-340,5,A
1781599110210,2944,2136,336,5,A
1781599110231,4216,6252,108,5,A
1781599110254,4316,4796,-1320,5,A
1781599110275,4020,2264,-2684,5,A
1781599110297,1608,-4348,-1320,5,A
1781599110317,2060,-21860,608,5,A
1781599110339,3244,-31360,2044,5,A
1781599110361,276,-32768,6400,5,A
1781599110383,1708,-32768,7276,5,A
1781599110405,5016,-31700,3184,5,A
1781599110426,3956,-23408,1988,5,A
1781599110447,492,-18372,3228,5,A
1781599110469,2772,-13072,1624,5,A
1781599110490,2024,-7548,872,5,A
1781599110512,1148,-2300,1988,5,A
1781599110533,336,-1124,2840,5,A
1781599110555,348,-580,2620,5,A
1781599110579,6584,-2272,-2672,5,A
1781599110600,6480,-10860,-1128,5,A
1781599110623,6804,-18412,-324,5,A
1781599110644,5856,-20584,2180,5,A
1781599110665,6108,-32284,2824,5,A
1781599110686,5904,-32768,4292,5,A
1781599110709,6716,-30156,3136,5,A
1781599110729,6608,-20580,968,5,A
1781599110750,3672,-14880,1620,5,A
1781599110773,-1684,-15432,4608,5,A
1781599110794,1316,-16392,4012,5,A
1781599110816,3828,-12216,2508,5,A
1781599110837,3260,-7112,2560,5,A
1781599110858,2812,-3888,3308,5,A
1781599110880,4052,-3064,1256,5,A
1781599110902,5240,1300,-544,5,A
1781599110924,2824,876,304,5,A
1781599110946,608,-5636,-240,5,A
1781599110967,984,-16064,-708,5,A
1781599110989,7340,-31396,-3712,5,A
1781599111011,12128,-32768,-4976,5,A
1781599111033,6260,-32768,1932,5,A
1781599111053,3000,-32768,3996,5,A
1781599111075,3596,-20888,760,5,A
1781599111097,2884,-20828,1180,5,A
1781599111118,4324,-15244,716,5,A
1781599111140,3516,-8852,496,5,A
1781599111162,1924,-3168,2292,5,A
1781599111182,1304,-1492,2964,5,A
1781599111204,1392,484,3100,5,A
1781599111226,1112,1728,2904,5,A
1781599111248,1448,3020,3216,5,A
1781599111269,1784,-44,2224,5,A
1781599111291,7004,-10380,-3792,5,A
1781599111313,20872,-25016,-14592,5,A
1781599111334,6348,-32768,-2828,5,A
1781599111356,-8560,-32768,9440,5,A
1781599111377,-676,-32768,4508,5,A
1781599111398,6552,-31084,-3208,5,A
1781599111420,3508,-24988,-1028,5,A
1781599111442,5256,-14868,-2972,5,A
1781599111463,2912,-7920,-496,5,A
1781599111485,2076,-3512,636,5,A
1781599111506,-1188,-1440,2648,5,A
1781599111528,-60,992,3068,5,A
1781599111550,500,1792,2824,5,A
1781599111571,-344,620,2460,5,A
1781599111593,-1192,-4336,3340,5,A
1781599111615,-1808,-12524,3844,5,A
1781599111637,6536,-18028,-3052,5,A
1781599111658,18180,-27308,-11124,5,A
1781599111679,12888,-32768,-5256,5,A
1781599111701,4340,-32768,1912,5,A
1781599111722,5576,-32768,2076,5,A
1781599111744,6860,-26000,-1240,5,A
1781599111765,3156,-19128,432,5,A
1781599111788,1744,-17152,2324,5,A
1781599111809,3648,-12912,1128,5,A
1781599111830,2976,-9668,1888,5,A
1781599111852,756,-5448,4844,5,A
1781599111873,776,-3120,4800,5,A
1781599111894,372,-1896,5648,5,A
1781599111917,1540,-616,4804,5,A
1781599111938,1644,-448,4120,5,A
1781599111960,1716,-2372,3124,5,A
1781599111981,1700,-3628,2400,5,A
1781599112003,3556,-14032,-880,5,A
1781599112025,7988,-31428,-4396,5,A
1781599112046,5872,-32768,-3272,5,A
1781599112068,3972,-32768,-816,5,A
1781599112089,8900,-32768,-5132,5,A
1781599112111,7248,-25892,-4104,5,A
1781599112133,1040,-21048,1360,5,A
1781599112155,168,-17120,2980,5,A
1781599112176,3236,-11684,1572,5,A
1781599112198,2020,-10032,3896,5,A
1781599112220,1936,-5984,4192,5,A
1781599112240,1756,-3240,4856,5,A
1781599112263,1632,-3600,5968,5,A
1781599112284,1712,-2016,6340,5,A
1781599112305,1344,-528,5540,5,A
1781599112327,164,-2752,4484,5,A
1781599112349,-4124,-13280,4796,5,A
1781599112370,5096,-30376,-2604,5,A
1781599112392,14324,-32768,-7272,5,A
1781599112415,10780,-32768,-4084,5,A
1781599112435,5408,-32768,-812,5,A
1781599112457,1348,-25064,2104,5,A
1781599112478,1028,-20816,2332,5,A
1781599112500,2200,-20308,996,5,A
1781599112521,4700,-13124,232,5,A
1781599112542,3880,-7232,1644,5,A
1781599112565,1660,-3260,4428,5,A
1781599112585,156,-204,6468,5,A
1781599112607,-356,680,8200,5,A
1781599112629,2028,1764,5964,5,A
1781599112651,2868,2232,4448,5,A
1781599112673,3100,3340,2216,5,A
1781599112694,-752,-6912,2064,5,A
1781599112716,1648,-24428,-176,5,A
1781599112738,6448,-32768,-4532,5,A
1781599112759,9464,-32768,-4612,5,A
1781599112781,10872,-32768,-5284,5,A
1781599112802,10908,-32768,-5868,5,A
1781599112824,3976,-27712,-1792,5,A
1781599112845,876,-16844,1288,5,A
1781599112866,8,-9668,2632,5,A
1781599112888,212,-4124,3272,5,A
1781599112909,-20,416,4144,5,A
1781599112931,244,4744,5048,5,A
1781599112952,1008,7416,4428,5,A
1781599112974,-692,8248,4252,5,A
1781599112996,-1556,4680,3140,5,A
1781599113018,-4484,-5372,1944,5,A
1781599113040,3300,-27908,-4564,5,A
1781599113061,13108,-32768,-8492,5,A
1781599113082,20400,-32768,-7564,5,A
1781599113104,13908,-32768,-5048,5,A
1781599113125,252,-29420,1744,5,A
1781599113147,-3716,-21240,5400,5,A
1781599113169,52,-12272,3580,5,A
1781599113190,1852,-6140,2616,5,A
1781599113212,292,264,4400,5,A
1781599113233,-352,3644,5760,5,A
1781599113255,312,6640,6184,5,A
1781599113277,1412,8500,3936,5,A
1781599113298,408,8328,2836,5,A
1781599113319,-1096,544,800,5,A
1781599113341,1040,-17456,-344,5,A
1781599113364,8488,-32768,-6588,5,A
1781599113384,10592,-32768,-4020,5,A
1781599113406,13780,-32768,-4160,5,A
1781599113428,8428,-32768,-1792,5,A
1781599113449,-5296,-27580,4848,5,A
1781599113471,-4028,-22452,6140,5,A
1781599113493,2176,-11356,796,5,A
1781599113514,2248,-2576,1204,5,A
1781599113536,-220,5328,2996,5,A
1781599113557,-1744,9284,5136,5,A
1781599113578,-1868,8356,6048,5,A
1781599113600,-1940,7940,4808,5,A
1781599113622,-1240,2812,2184,5,A
1781599113644,-2456,-4912,2724,5,A
1781599113665,-3592,-19304,4244,5,A
1781599113686,3240,-32768,172,5,A
1781599113708,10200,-32768,-2632,5,A
1781599113731,22688,-32768,-8000,5,A
1781599113750,24100,-32768,-8692,5,A
1781599113773,5952,-26748,-744,5,A
1781599113794,-5992,-19668,6600,5,A
1781599113816,-3072,-13488,5232,5,A
1781599113837,-504,-7480,4084,5,A
1781599113860,828,-1508,3260,5,A
1781599113880,1428,3512,3200,5,A
1781599113902,512,7192,4920,5,A
1781599113924,1180,8960,3904,5,A
1781599113945,-272,7296,3544,5,A
1781599113967,-4436,232,6540,5,A
1781599113989,-4736,-11156,5308,5,A
1781599114011,2436,-31132,2848,5,A
1781599114032,10640,-32768,-1516,5,A
1781599114054,17256,-32768,-4424,5,A
1781599114076,26988,-32768,-9120,5,A
1781599114097,14380,-32768,-5676,5,A
1781599114118,-3356,-17176,3960,5,A
1781599114140,-4708,-12940,5208,5,A
1781599114162,-2320,-6148,4016,5,A
1781599114183,520,-284,2584,5,A
1781599114205,1192,3476,2996,5,A
1781599114226,-340,8188,4336,5,A
1781599114248,112,11632,3268,5,A
1781599114269,-268,9596,2444,5,A
1781599114291,-1832,12,3940,5,A
1781599114313,1504,-7932,1916,5,A
1781599114334,5188,-28900,-1444,5,A
1781599114356,6776,-32768,3784,5,A
1781599114377,12796,-32768,3492,5,A
1781599114399,11012,-32768,240,5,A
1781599114421,-1908,-29016,5072,5,A
1781599114442,-3044,-22916,5380,5,A
1781599114463,852,-14716,2952,5,A
1781599114486,-1476,-7160,4128,5,A
1781599114506,512,-56,4232,5,A
1781599114528,288,6120,4488,5,A
1781599114550,-668,9184,4512,5,A
1781599114571,-572,12016,4660,5,A
1781599114594,1132,7740,2072,5,A
1781599114615,-2052,-652,4628,5,A
1781599114636,-2628,-8344,2532,5,A
1781599114658,-1236,-29952,3344,5,A
1781599114680,10100,-32768,1052,5,A
1781599114701,18020,-32768,616,5,A
1781599114723,12980,-32768,1196,5,A
1781599114744,-1840,-28724,4440,5,A
1781599114766,-6708,-23408,8552,5,A
1781599114787,-2056,-16636,4512,5,A
1781599114809,524,-8000,2328,5,A
1781599114830,1572,164,2140,5,A
1781599114852,944,7272,3580,5,A
1781599114873,-12,11984,4136,5,A
1781599114895,-668,9480,4268,5,A
1781599114916,860,7436,2512,5,A
1781599114938,1412,-40,1752,5,A
1781599114960,-1064,-16012,4452,5,A
1781599114982,9480,-31372,-1916,5,A
1781599115004,13400,-32768,-2404,5,A
1781599115026,10364,-32768,1160,5,A
1781599115047,9240,-32768,704,5,A
1781599115069,1920,-32768,2940,5,A
1781599115090,-792,-21576,3336,5,A
1781599115111,-1180,-12432,3220,5,A
1781599115133,356,-6068,2752,5,A
1781599115154,776,992,3120,5,A
1781599115177,844,5540,4412,5,A
1781599115197,1252,8832,4696,5,A
1781599115219,-600,9560,4816,5,A
1781599115240,48,6844,3056,5,A
1781599115262,2276,-2556,-408,5,A
1781599115284,2748,-26820,364,5,A
1781599115305,6324,-32768,-212,5,A
1781599115327,7988,-32768,568,5,A
1781599115348,4368,-32768,720,5,A
1781599115371,3712,-32768,540,5,A
1781599115392,-1216,-28600,3636,5,A
1781599115414,-3076,-18144,3140,5,A
1781599115436,-1672,-13852,3176,5,A
1781599115456,-40,-7124,2912,5,A
1781599115478,436,-1272,3724,5,A
1781599115500,1684,5316,3736,5,A
1781599115521,-548,10036,4468,5,A
1781599115543,-1172,7592,4308,5,A
1781599115564,-1412,3548,3060,5,A
1781599115586,1976,-4748,-612,5,A
1781599115607,4936,-19924,-3424,5,A
1781599115629,9972,-32768,-5804,5,A
1781599115651,6448,-32768,-272,5,A
1781599115672,6320,-32768,-292,5,A
1781599115694,3860,-32768,-424,5,A
1781599115716,-3048,-27496,4444,5,A
1781599115737,-4456,-16568,4776,5,A
1781599115759,-1980,-8240,3008,5,A
1781599115781,564,-1956,2144,5,A
1781599115802,2280,3140,2460,5,A
1781599115823,2044,7220,3256,5,A
1781599115846,2468,11812,2516,5,A
1781599115866,-1244,9628,3628,5,A
1781599115888,-4836,4996,4224,5,A
1781599115910,416,-4140,-2036,5,A
1781599115931,4172,-24172,-6548,5,A
1781599115954,-1000,-32768,696,5,A
1781599115975,4824,-32768,-548,5,A
1781599115997,12932,-32768,-6564,5,A
1781599116018,6316,-32768,-3316,5,A
1781599116040,-4036,-28464,3868,5,A
1781599116062,-1456,-18788,2644,5,A
1781599116082,1660,-8796,580,5,A
1781599116104,1588,-2124,1296,5,A
1781599116126,924,4864,3500,5,A
1781599116148,1500,10820,3544,5,A
1781599116169,1948,14556,2960,5,A
1781599116191,-1940,13212,4264,5,A
1781599116212,-3896,6756,3560,5,A
1781599116234,-4648,-6548,1692,5,A
1781599116255,-1392,-32768,-1480,5,A
1781599116277,4192,-32768,-2440,5,A
1781599116298,6648,-32768,288,5,A
1781599116321,9728,-32768,-5432,5,A
1781599116342,-1968,-25452,1608,5,A
1781599116365,-8800,-15308,8156,5,A
1781599116387,-5072,-7592,5628,5,A
1781599116409,-1460,-2100,3912,5,A
1781599116430,-380,564,3504,5,A
1781599116451,-188,3612,4716,5,A
1781599116474,-1012,5380,5996,5,A
1781599116494,-424,5608,3888,5,A
1781599116517,-368,3468,2244,5,A
1781599116537,-2652,-1696,1876,5,A
1781599116559,864,-12408,-2216,5,A
1781599116581,9780,-32620,-12268,5,A
1781599116603,8984,-32768,-10780,5,A
1781599116624,14120,-32768,-10636,5,A
1781599116646,25356,-32768,-19400,5,A
1781599116668,12152,-23672,-10648,5,A
1781599116689,-900,-16692,612,5,A
1781599116711,-4908,-14008,5488,5,A
1781599116732,-2256,-8168,4664,5,A
1781599116754,-1412,-2988,5104,5,A
1781599116775,-740,-252,4896,5,A
1781599116797,-580,732,5440,5,A
1781599116818,1228,1484,4124,5,A
1781599116840,-364,828,3888,5,A
1781599116861,148,-1004,1984,5,A
1781599116883,-324,-3820,-548,5,A
1781599116905,80,-18976,-4500,5,A
1781599116926,444,-32768,-6180,5,A
1781599116948,168,-32768,-3860,5,A
1781599116970,17132,-32768,-18580,5,A
1781599116992,20956,-32768,-19216,5,A
1781599117013,6620,-26336,-7640,5,A
1781599117034,-944,-20140,660,5,A
1781599117056,-2036,-14824,3408,5,A
1781599117077,88,-6828,3860,5,A
1781599117100,896,-2252,4160,5,A
1781599117121,276,648,5724,5,A
1781599117142,68,3092,6576,5,A
1781599117164,52,2116,6716,5,A
1781599117185,308,2432,5504,5,A
1781599117207,1072,312,3676,5,A
1781599117228,248,-2748,2036,5,A
1781599117250,5748,-16384,-3676,5,A
1781599117272,7544,-32768,-2924,5,A
1781599117294,6432,-32768,-2528,5,A
1781599117316,14152,-32768,-8948,5,A
1781599117337,18356,-32768,-12000,5,A
1781599117358,8388,-27344,-6392,5,A
1781599117380,-2860,-20084,1868,5,A
1781599117402,-4352,-11240,3692,5,A
1781599117424,-3496,-3672,4348,5,A
1781599117444,-2172,-812,4028,5,A
1781599117466,-1208,1356,4568,5,A
1781599117488,-2780,3504,6212,5,A
1781599117509,-3784,5576,6596,5,A
1781599117530,-1972,4808,2896,5,A
1781599117552,-584,720,-796,5,A
1781599117574,-988,-11736,-2948,5,A
1781599117595,2904,-29900,-7884,5,A
1781599117617,7660,-32768,-8508,5,A
1781599117639,14364,-32768,-10696,5,A
1781599117661,14912,-32768,-9984,5,A
1781599117682,2888,-28964,-1516,5,A
1781599117703,-3912,-21232,3636,5,A
1781599117725,-2632,-14600,4424,5,A
1781599117746,-732,-7456,3328,5,A
1781599117768,-784,-2108,4288,5,A
1781599117789,-1132,2644,5872,5,A
1781599117811,-1484,4480,7196,5,A
1781599117832,-3300,7040,8980,5,A
1781599117854,-3496,8568,7604,5,A
1781599117876,-3196,3824,4484,5,A
1781599117897,-3876,-5408,1536,5,A
1781599117919,-392,-27008,-3852,5,A
1781599117940,7484,-32768,-8648,5,A
1781599117963,19664,-32768,-13784,5,A
1781599117985,16172,-32768,-11580,5,A
1781599118006,2324,-25584,-1416,5,A
1781599118027,-3200,-18728,4908,5,A
1781599118050,-456,-10672,3860,5,A
1781599118070,644,-5104,3712,5,A
1781599118092,732,-620,4340,5,A
1781599118113,-48,3688,6460,5,A
1781599118135,-588,6416,7664,5,A
1781599118157,340,8280,6040,5,A
1781599118178,76,7724,4092,5,A
1781599118199,952,4776,720,5,A
1781599118221,-6944,-3644,2296,5,A
1781599118244,-8672,-26956,1552,5,A
1781599118266,12880,-32768,-13200,5,A
1781599118287,27760,-32768,-17720,5,A
1781599118309,19020,-32768,-10744,5,A
1781599118330,1868,-29412,-1524,5,A
1781599118351,-5244,-23620,5860,5,A
1781599118373,-1320,-12956,3768,5,A
1781599118395,1064,-6016,2180,5,A
1781599118416,1140,-536,2284,5,A
1781599118438,-1296,3896,5748,5,A
1781599118459,-964,7048,6600,5,A
1781599118480,-1000,9472,5252,5,A
1781599118502,-1296,11208,3716,5,A
1781599118523,-2004,6436,2468,5,A
1781599118545,-4436,-3456,1716,5,A
1781599118567,1776,-32768,-2288,5,A
1781599118589,14924,-32768,-5992,5,A
1781599118611,21896,-32768,-6844,5,A
1781599118632,12296,-32768,-3608,5,A
1781599118653,-180,-27492,3276,5,A
1781599118675,-5408,-21388,7200,5,A
1781599118696,-1828,-15552,4000,5,A
1781599118718,3400,-7972,184,5,A
1781599118740,3116,-2284,1460,5,A
1781599118761,648,3808,4396,5,A
1781599118783,-1276,7204,6600,5,A
1781599118805,-3280,10128,7300,5,A
1781599118826,-3724,7520,5636,5,A
1781599118847,-540,3380,528,5,A
1781599118870,-3168,-15756,792,5,A
1781599118892,1444,-32768,-1256,5,A
1781599118913,20540,-32768,-10012,5,A
1781599118935,24868,-32768,-10536,5,A
1781599118957,8768,-32768,-2184,5,A
1781599118978,-2728,-28020,6076,5,A
1781599118999,-1812,-19768,5904,5,A
1781599119021,3484,-10452,920,5,A
1781599119043,2072,-2668,2996,5,A
1781599119065,-420,2416,5220,5,A
1781599119086,-2400,7604,7340,5,A
1781599119107,-2304,11892,7376,5,A
1781599119129,-2228,13708,5280,5,A
1781599119150,688,10672,1400,5,A
1781599119172,-4972,1520,5148,5,A
1781599119194,-6944,-8096,4348,5,A
1781599119215,7820,-32768,-5536,5,A
1781599119238,26940,-32768,-13284,5,A
1781599119258,27840,-32768,-6916,5,A
1781599119280,17180,-32768,-6620,5,A
1781599119301,-152,-24620,3020,5,A
1781599119324,-5436,-18028,7792,5,A
1781599119345,16,-11612,4496,5,A
1781599119366,3848,-3968,768,5,A
1781599119388,3512,344,1540,5,A
1781599119410,1036,5572,4176,5,A
1781599119431,-848,11164,5440,5,A
1781599119454,-3156,13804,5600,5,A
1781599119475,-5700,9348,5676,5,A
1781599119496,-5672,1768,3720,5,A
1781599119519,-2284,-13744,-1552,5,A
1781599119539,9552,-32768,-8768,5,A
1781599119561,19664,-32768,-10184,5,A
1781599119582,17100,-32768,-6368,5,A
1781599119604,8208,-32768,-4712,5,A
1781599119625,-3988,-23780,3552,5,A
1781599119648,-2120,-15344,3256,5,A
1781599119669,1476,-5528,1280,5,A
1781599119690,292,-204,3004,5,A
1781599119712,-1600,6980,5712,5,A
1781599119734,-3628,12964,7780,5,A
1781599119756,-5200,15868,7864,5,A
1781599119777,-6060,13368,6264,5,A
1781599119798,-6624,-28,1868,5,A
1781599119820,-2908,-29284,-2656,5,A
1781599119842,16540,-32768,-14556,5,A
1781599119863,24976,-32768,-10308,5,A
1781599119885,21420,-32768,-11408,5,A
1781599119907,2796,-26492,-1148,5,A
1781599119928,-3132,-17504,4920,5,A
1781599119950,904,-8384,3296,5,A
1781599119972,2796,-916,2508,5,A
1781599119993,1032,4556,4452,5,A
1781599120015,-632,10220,6684,5,A
1781599120036,-2612,14240,7840,5,A
1781599120058,-4464,13132,7792,5,A
1781599120080,-5256,4012,4656,5,A
1781599120101,-3880,-19380,476,5,A
1781599120124,13324,-32768,-11360,5,A
1781599120145,23824,-32768,-13488,5,A
1781599120166,23856,-32768,-12388,5,A
1781599120188,11764,-32768,-7764,5,A
1781599120209,-344,-24016,1132,5,A
1781599120231,-2740,-14024,4864,5,A
1781599120252,452,-6252,2156,5,A
1781599120275,-1044,1740,3504,5,A
1781599120296,-2944,7704,6096,5,A
1781599120317,-4652,12436,8688,5,A
1781599120340,-6152,14168,10132,5,A
1781599120361,-6004,11436,7616,5,A
1781599120382,-3740,2880,3424,5,A
1781599120404,988,-9412,-2832,5,A
1781599120425,10872,-32768,-9944,5,A
1781599120447,12360,-32768,-7676,5,A
1781599120469,21836,-32768,-9968,5,A
1781599120490,23120,-32768,-12744,5,A
1781599120512,2840,-29684,-1444,5,A
1781599120533,-4128,-20568,3240,5,A
1781599120555,-3028,-10272,3368,5,A
1781599120577,-2652,-2484,4432,5,A
1781599120598,-3512,2860,6892,5,A
1781599120620,-4100,9220,8396,5,A
1781599120642,-3396,13560,7540,5,A
1781599120663,-3736,15024,6116,5,A
1781599120685,-2860,6176,2972,5,A
1781599120706,2956,-9600,-3816,5,A
1781599120728,13660,-32768,-8620,5,A
1781599120750,11288,-32768,-4092,5,A
1781599120771,25476,-32768,-12072,5,A
1781599120793,12952,-32768,-7148,5,A
1781599120815,-6572,-24344,5608,5,A
1781599120836,-8232,-16828,8460,5,A
1781599120858,-2356,-7476,4184,5,A
1781599120879,-996,-908,4860,5,A
1781599120900,-1384,2748,5028,5,A
1781599120924,-2516,7900,6628,5,A
1781599120944,-2592,10372,7524,5,A
1781599120966,-3140,11976,6532,5,A
1781599120988,-3836,7596,4616,5,A
1781599121009,-2252,-5808,1400,5,A
1781599121031,7664,-30308,-5832,5,A
1781599121053,14124,-32768,-7408,5,A
1781599121074,16572,-32768,-4880,5,A
1781599121096,19924,-32768,-8564,5,A
1781599121117,7604,-31304,-1844,5,A
1781599121139,-1912,-18864,3688,5,A
1781599121161,-1024,-11548,3780,5,A
1781599121182,-932,-4060,4152,5,A
1781599121204,-2012,1208,5540,5,A
1781599121225,-2524,5440,7308,5,A
1781599121247,-2716,9160,7852,5,A
1781599121268,-2396,10420,6644,5,A
1781599121289,-3688,5976,5648,5,A
1781599121312,-1988,-6988,1888,5,A
1781599121333,4100,-32632,-3172,5,A
1781599121355,9160,-32768,-5576,5,A
1781599121377,10328,-32768,-1340,5,A
1781599121399,12048,-32768,-3916,5,A
1781599121420,2080,-30972,2552,5,A
1781599121442,-2348,-21296,4876,5,A
1781599121463,-1256,-15036,4084,5,A
1781599121484,-1048,-9924,3356,5,A
1781599121506,440,-5084,4360,5,A
1781599121528,-320,-200,5348,5,A
1781599121549,-1528,5416,6920,5,A
1781599121571,-2060,9904,7552,5,A
1781599121592,-2704,6552,6000,5,A
1781599121613,-1276,492,3568,5,A
1781599121635,1256,-8624,276,5,A
1781599121658,1424,-25220,1080,5,A
1781599121679,1284,-32768,1460,5,A
1781599121701,7108,-32768,424,5,A
1781599121722,13852,-32768,-4688,5,A
1781599121743,9648,-32768,-680,5,A
1781599121765,2064,-25608,2040,5,A
1781599121787,-544,-19120,3776,5,A
1781599121808,-488,-13820,4448,5,A
1781599121830,1788,-5616,3016,5,A
1781599121852,-400,-2424,4044,5,A
1781599121875,-452,4564,4160,5,A
1781599121895,624,8072,3424,5,A
1781599121916,272,6624,3348,5,A
1781599121938,1472,5544,-952,5,A
1781599121959,1588,2872,-3260,5,A
1781599121981,-2812,-12996,1012,5,A
1781599122004,-10148,-32768,13320,5,A
1781599122025,3152,-32768,10088,5,A
1781599122047,29668,-32768,-7824,5,A
1781599122068,18624,-32768,-4776,5,A
1781599122089,-2348,-26972,8300,5,A
1781599122113,-5472,-18340,8620,5,A
1781599122133,-1160,-9308,2816,5,A
1781599122155,-2348,-76,-780,5,A
1781599122177,-2020,6744,-4,5,A
1781599122198,-1672,13792,612,5,A
1781599122221,-3300,15440,1900,5,A
1781599122242,-2500,11936,2236,5,A
1781599122264,-100,10288,-2344,5,A
1781599122286,-5772,4004,2468,5,A
1781599122307,-11916,-23216,4616,5,A
1781599122328,12196,-32768,13532,5,A
1781599122351,29552,-32768,-16952,5,A
1781599122372,28736,-32768,-11760,5,A
1781599122394,4288,-32768,1284,5,A
1781599122415,-4348,-24516,8320,5,A
1781599122436,-828,-25268,6836,5,A
1781599122458,8316,-14240,-3320,5,A
1781599122480,7740,-5020,-5020,5,A
1781599122502,3380,5716,-1404,5,A
1781599122523,-864,11208,1600,5,A
1781599122545,-436,16648,1892,5,A
1781599122566,-1912,14776,1820,5,A
1781599122588,-4048,10424,2988,5,A
1781599122610,-1708,3228,-860,5,A
1781599122631,-4564,-22628,2568,5,A
1781599122653,-3876,-32768,6468,5,A
1781599122674,9196,-32768,2916,5,A
1781599122696,14660,-32768,880,5,A
1781599122717,6300,-31616,2144,5,A
1781599122739,-6596,-18468,10016,5,A
1781599122761,-7240,-12864,10520,5,A
1781599122782,-160,-5172,4444,5,A
1781599122804,1876,-3696,3220,5,A
1781599122825,1684,6552,2528,5,A
1781599122847,-1476,11016,3308,5,A
1781599122869,-1840,13292,3100,5,A
1781599122890,-3624,8352,1852,5,A
1781599122912,-388,-3344,-3120,5,A
1781599122935,-2512,-32768,-2684,5,A
1781599122955,6516,-32768,-4736,5,A
1781599122977,21712,-32768,-10920,5,A
1781599122999,17816,-32768,-6616,5,A
1781599123020,-212,-23248,3728,5,A
1781599123042,-8056,-16624,10464,5,A
1781599123064,-2952,-9836,6832,5,A
1781599123085,-2072,-7604,6216,5,A
1781599123107,-612,-3712,4292,5,A
1781599123128,-884,-1248,4156,5,A
1781599123149,1680,3624,2860,5,A
1781599123172,560,7716,2384,5,A
1781599123193,740,5676,848,5,A
1781599123215,2416,-1664,-2924,5,A
1781599123237,-3640,-25392,-1944,5,A
1781599123258,2228,-32768,-6040,5,A
1781599123280,12308,-32768,-9112,5,A
1781599123301,13504,-32768,-8160,5,A
1781599123324,5672,-29416,-2456,5,A
1781599123344,-6444,-19512,8192,5,A
1781599123367,-4804,-10796,7664,5,A
1781599123388,-2924,-6432,5784,5,A
1781599123410,-216,-3032,3208,5,A
1781599123430,1096,-996,1440,5,A
1781599123452,320,2880,3212,5,A
1781599123474,1000,7972,-24,5,A
1781599123495,372,3944,1624,5,A
1781599123517,-1668,2448,1136,5,A
1781599123538,-4480,-15624,900,5,A
1781599123560,-1548,-31944,-4544,5,A
1781599123582,17264,-32768,-12708,5,A
1781599123604,17588,-32768,-10552,5,A
1781599123625,7460,-32768,-1276,5,A
1781599123647,1180,-25100,2516,5,A
1781599123668,-2072,-18876,5012,5,A
1781599123690,-1840,-14568,5092,5,A
1781599123712,-448,-11720,4084,5,A
1781599123734,2340,-6864,1988,5,A
1781599123755,2648,-5080,1400,5,A
1781599123776,1760,-2784,1968,5,A
1781599123798,952,1004,1704,5,A
1781599123820,1068,3548,1000,5,A
1781599123840,-76,352,48,5,A
1781599123862,408,-3624,-1644,5,A
1781599123885,-1528,-23020,-804,5,A
1781599123906,-2096,-32768,2676,5,A
1781599123927,11520,-32768,-4728,5,A
1781599123950,14876,-32768,-3512,5,A
1781599123971,8352,-30624,148,5,A
1781599123993,-548,-23212,7488,5,A
1781599124014,-288,-19916,6860,5,A
1781599124036,2592,-14340,2984,5,A
1781599124057,2152,-9652,1692,5,A
1781599124079,1020,-3916,2024,5,A
1781599124100,52,800,2200,5,A
1781599124122,-748,4052,3428,5,A
1781599124143,-396,6804,2300,5,A
1781599124166,-876,7296,1488,5,A
1781599124186,-1196,4568,-1272,5,A
1781599124208,-1496,-6768,-1908,5,A
1781599124230,-6376,-13372,1468,5,A
1781599124252,-5720,-32768,10676,5,A
1781599124274,8376,-32768,-220,5,A
1781599124295,15764,-32768,-3484,5,A
1781599124317,10088,-32768,-624,5,A
1781599124338,-584,-26076,6956,5,A
1781599124360,-1492,-21456,7892,5,A
1781599124382,2892,-14284,2352,5,A
1781599124403,3724,-8776,-512,5,A
1781599124424,1756,-696,-160,5,A
1781599124446,-996,4100,1496,5,A
1781599124467,-380,7992,644,5,A
1781599124489,-884,10600,-64,5,A
1781599124510,-1136,9064,-1080,5,A
1781599124533,-1104,492,-1096,5,A
1781599124554,-2968,-16308,2952,5,A
1781599124576,-1212,-32768,4260,5,A
1781599124597,7656,-32768,1052,5,A
1781599124619,15180,-32768,-1656,5,A
1781599124641,10724,-32768,492,5,A
1781599124662,932,-23296,6360,5,A
1781599124684,-3072,-18652,8568,5,A
1781599124705,664,-15616,5492,5,A
1781599124727,5244,-9360,652,5,A
1781599124748,3228,-4312,992,5,A
1781599124770,1048,1464,2460,5,A
1781599124791,-1184,3868,2720,5,A
1781599124813,52,7812,1856,5,A
1781599124835,-1464,7212,1992,5,A
1781599124856,-1988,3552,1148,5,A
1781599124878,-3404,-11112,788,5,A
1781599124899,2964,-29200,-2276,5,A
1781599124921,6284,-32768,-964,5,A
1781599124943,5632,-32768,2416,5,A
1781599124964,7708,-32768,2260,5,A
1781599124986,10148,-32768,-1068,5,A
1781599125008,7528,-26912,1052,5,A
1781599125030,3560,-18452,2544,5,A
1781599125051,3136,-13224,3420,5,A
1781599125073,2500,-10512,3524,5,A
1781599125094,3624,-7096,1908,5,A
1781599125116,1948,-3704,2232,5,A
1781599125137,2540,-248,2380,5,A
1781599125159,896,4204,2200,5,A
1781599125181,-732,6556,2160,5,A
1781599125202,-1780,5324,672,5,A
1781599125224,-2672,6376,-2080,5,A
1781599125245,-8960,-13716,2396,5,A
1781599125267,-6400,-32768,2264,5,A
1781599125289,-1884,-32768,2092,5,A
1781599125310,13184,-32768,-7424,5,A
1781599125333,15564,-32768,-8724,5,A
1781599125354,2356,-27204,796,5,A
1781599125375,-1340,-16536,3828,5,A
1781599125397,104,-11336,2912,5,A
1781599125418,1852,-3968,1824,5,A
1781599125439,3136,-376,1592,5,A
1781599125460,648,1520,3568,5,A
1781599125482,-612,4600,4224,5,A
1781599125504,632,6804,2432,5,A
1781599125525,116,4596,388,5,A
1781599125548,-1408,6372,-576,5,A
1781599125569,-5228,-14848,-1392,5,A
1781599125591,-3868,-32768,-420,5,A
1781599125612,7136,-32768,-6908,5,A
1781599125634,20120,-32768,-13356,5,A
1781599125656,14060,-32768,-6620,5,A
1781599125677,2976,-26520,-128,5,A
1781599125699,1324,-20872,1660,5,A
1781599125720,2200,-13928,208,5,A
1781599125742,2276,-7312,516,5,A
1781599125763,1832,-2912,504,5,A
1781599125785,612,3436,2932,5,A
1781599125806,-2324,6508,5384,5,A
1781599125828,-2580,10696,5196,5,A
1781599125850,-2476,9924,4188,5,A
1781599125871,-1200,6908,1380,5,A
1781599125893,1596,4036,-2368,5,A
1781599125914,5588,-16760,-7864,5,A
1781599125937,-7204,-32768,1500,5,A
1781599125958,1640,-32768,-984,5,A
1781599125980,23580,-32768,-15624,5,A
1781599126002,10740,-32768,-6500,5,A
1781599126023,-6740,-25756,6748,5,A
1781599126045,-5912,-21036,6820,5,A
1781599126066,1960,-12312,1548,5,A
1781599126088,5548,-7632,-1456,5,A
1781599126110,4508,-3004,524,5,A
1781599126130,196,2876,4772,5,A
1781599126152,-392,6968,5964,5,A
1781599126174,-268,11260,5908,5,A
1781599126195,-1540,11356,5152,5,A
1781599126217,-2664,9992,3396,5,A
1781599126238,-3440,1820,1496,5,A
1781599126260,-3844,-32768,216,5,A
1781599126282,-440,-32768,1284,5,A
1781599126304,14836,-32768,-3592,5,A
1781599126325,15008,-32768,-5640,5,A
1781599126347,-1256,-27132,5032,5,A
1781599126368,-7604,-15816,9272,5,A
1781599126390,-5500,-11296,8760,5,A
1781599126411,-396,-5632,4780,5,A
1781599126433,1904,-1840,5088,5,A
1781599126455,2328,1172,4456,5,A
1781599126476,-688,4468,7068,5,A
1781599126497,-1760,8532,6724,5,A
1781599126519,-2672,7620,5692,5,A
1781599126540,-2268,5752,2668,5,A
1781599126562,-3144,-4616,-216,5,A
1781599126584,-116,-32768,-5536,5,A
1781599126606,6412,-32768,-7232,5,A
1781599126627,20840,-32768,-10120,5,A
1781599126648,18140,-32768,-10216,5,A
1781599126670,-484,-27768,544,5,A
1781599126691,-6992,-22272,6740,5,A
1781599126713,-3896,-12696,4848,5,A
1781599126735,400,-7176,3444,5,A
1781599126756,616,-2132,4152,5,A
1781599126778,-432,5020,6216,5,A
1781599126800,-2368,10752,7972,5,A
1781599126821,-2720,10848,8236,5,A
1781599126843,-1976,9988,6268,5,A
1781599126864,1424,5152,1780,5,A
1781599126886,6628,-1292,-6056,5,A
1781599126907,164,-24136,-5536,5,A
1781599126929,-4952,-32768,-348,5,A
1781599126951,14444,-32768,-6092,5,A
1781599126973,17672,-32768,-7048,5,A
1781599126994,-3980,-25124,2688,5,A
1781599127016,-15120,-15584,13184,5,A
1781599127037,-10636,-11080,11272,5,A
1781599127059,-3176,-7056,5428,5,A
1781599127080,972,-876,1916,5,A
1781599127102,1024,4308,4572,5,A
1781599127124,1344,7020,5920,5,A
1781599127146,4068,14092,5308,5,A
1781599127167,5028,13576,392,5,A
1781599127188,2000,7864,860,5,A
1781599127210,-2980,-1948,1280,5,A
1781599127232,-1284,-28280,-1996,5,A
1781599127253,10440,-32768,-8908,5,A
1781599127275,18704,-32768,-5020,5,A
1781599127297,14992,-32768,-2348,5,A
1781599127318,-2240,-31956,3820,5,A
1781599127340,-11352,-29032,9980,5,A
1781599127361,-5740,-18060,6016,5,A
1781599127383,2348,-7224,-260,5,A
1781599127404,3296,1416,-664,5,A
1781599127426,812,12952,2948,5,A
1781599127448,-2932,20688,6900,5,A
1781599127469,-3392,22936,8208,5,A
1781599127491,-3040,18424,6396,5,A
1781599127512,-832,12268,2680,5,A
1781599127534,-2892,1580,1064,5,A
1781599127556,-4380,-16424,-552,5,A
1781599127578,10556,-32768,-10208,5,A
1781599127600,18824,-32768,-10560,5,A
1781599127620,28040,-32768,-10172,5,A
1781599127643,19164,-32768,-6724,5,A
1781599127664,160,-31736,1172,5,A
1781599127686,-11924,-24068,9224,5,A
1781599127707,-6008,-12332,3408,5,A
1781599127728,-8,-3092,-712,5,A
1781599127751,2472,4876,-1024,5,A
1781599127771,1620,11532,2512,5,A
1781599127793,372,16240,4176,5,A
1781599127815,-724,20196,4992,5,A
1781599127837,-2592,20404,4804,5,A
1781599127858,-5340,11868,4604,5,A
1781599127880,-812,1604,-2688,5,A
1781599127903,-3416,-31028,-3148,5,A
1781599127925,1628,-32768,-3904,5,A
1781599127947,14708,-32768,-6708,5,A
1781599127969,20916,-32768,-9108,5,A
1781599127990,-1556,-32768,940,5,A
1781599128012,-13596,-30656,8752,5,A
1781599128034,-4136,-20192,2036,5,A
1781599128054,3436,-7416,-2864,5,A
1781599128076,1584,3056,196,5,A
1781599128097,-1800,16880,3748,5,A
1781599128119,-5288,29596,8164,5,A
1781599128141,-2672,30800,6000,5,A
1781599128162,572,20644,1824,5,A
1781599128184,4324,10880,-2920,5,A
1781599128205,-5644,-8236,-140,5,A
1781599128228,-16588,-32768,3044,5,A
1781599128250,15996,-32768,-14448,5,A
1781599128271,31140,-32768,-11796,5,A
1781599128292,7424,-32768,-3932,5,A
1781599128314,-14124,-32080,5476,5,A
1781599128335,-9072,-18224,1100,5,A
1781599128357,2764,-4308,-5316,5,A
1781599128378,448,4120,-2296,5,A
1781599128400,-2160,9780,1800,5,A
1781599128422,-2192,21736,4844,5,A
1781599128444,-964,31680,4696,5,A
1781599128465,-4644,30536,5276,5,A
1781599128487,-7236,22772,3540,5,A
1781599128508,-4544,12352,-1396,5,A
1781599128530,-1836,-5776,-6464,5,A
1781599128551,-22532,-25440,4932,5,A
1781599128573,-9892,-32768,-18668,5,A
1781599128595,32767,-32768,-32768,5,A
1781599128617,32767,-32768,-32768,5,A
1781599128638,15948,-32768,-15724,5,A
1781599128660,-12972,-32768,2424,5,A
1781599128681,-9136,-29092,-140,5,A
1781599128703,-9616,-26232,692,5,A
1781599128724,7804,-14796,-10424,5,A
1781599128746,3560,-7228,-5740,5,A
1781599128768,-2272,4248,468,5,A
1781599128789,-3664,5536,3136,5,A
1781599128810,-7480,5456,5780,5,A
1781599128832,-7008,11852,4548,5,A
1781599128854,-5904,15912,2964,5,A
1781599128875,-3908,13092,724,5,A
1781599128897,-4476,19388,996,5,A
1781599128919,-4016,24852,-948,5,A
1781599128940,-4248,17920,-2352,5,A
1781599128962,-3336,13256,-3448,5,A
1781599128984,2332,2016,-5604,5,A
1781599129005,-1440,-7784,-1344,5,A
1781599129027,-16216,-20540,10340,5,A
1781599129048,22540,-32768,-13184,5,A
1781599129070,13416,-32768,6280,5,A
1781599129092,-312,-32768,26500,5,A
1781599129114,14500,-32768,15476,5,A
1781599129134,23792,-32768,1996,5,A
1781599129156,6488,-32768,5176,5,A
1781599129178,-8048,-30276,12176,5,A
1781599129199,148,-24556,5720,5,A
1781599129221,6276,-29484,-2320,5,A
1781599129243,-548,-23008,-2188,5,A
1781599129265,4516,-14648,-6064,5,A
1781599129286,7224,-8652,-7224,5,A
1781599129308,500,-1992,-4056,5,A
1781599129329,-3652,1296,-1728,5,A
1781599129350,-3432,6492,-552,5,A
1781599129373,-3648,11696,-112,5,A
1781599129394,-7368,11308,2464,5,A
1781599129416,-7456,10648,1292,5,A
1781599129437,-3328,14008,-1508,5,A
1781599129459,636,16388,-3584,5,A
1781599129480,-2816,16036,-496,5,A
1781599129502,-4640,10600,-588,5,A
1781599129523,-5172,3708,-996,5,A
1781599129545,-2908,-232,-360,5,A
1781599129567,-3788,-5044,784,5,A
1781599129589,-5684,-18188,452,5,A
1781599129610,24760,-17248,-11900,5,A
1781599129632,28292,-32768,-8164,5,A
1781599129653,1596,-32768,8200,5,A
1781599129675,32767,-32768,-11172,5,A
1781599129697,24924,-32768,-5640,5,A
1781599129718,6052,-32768,3256,5,A
1781599129740,11456,-29060,-8136,5,A
1781599129762,9364,-24268,-8284,5,A
1781599129783,6500,-19312,-5912,5,A
1781599129804,364,-12192,-1944,5,A
1781599129826,-1924,-3612,-1292,5,A
1781599129848,-4620,-260,1732,5,A
1781599129869,-348,-16,820,5,A
1781599129890,-3632,4540,2628,5,A
1781599129912,-5876,8436,5416,5,A
1781599129934,-2900,10408,1440,5,A
1781599129956,-4644,9620,2836,5,A
1781599129978,168,9620,128,5,A
1781599129999,3920,14196,-3704,5,A
1781599130021,-6708,16020,3840,5,A
1781599130042,-4612,10404,3240,5,A
1781599130063,-3232,316,480,5,A
1781599130086,-24776,-18208,12436,5,A
1781599130107,-6448,-23388,-3408,5,A
1781599130129,32767,-32768,-28248,5,A
1781599130151,13116,-32768,-924,5,A
1781599130172,4780,-32768,12552,5,A
1781599130193,7088,-32768,9188,5,A
1781599130215,4700,-32768,4924,5,A
1781599130237,-3056,-30684,5736,5,A
1781599130258,-2880,-27612,2572,5,A
1781599130280,1132,-20696,-1976,5,A
1781599130302,2200,-11140,-3064,5,A
1781599130323,3944,-8076,-3776,5,A
1781599130345,744,-2736,-348,5,A
1781599130366,1276,-1296,276,5,A
1781599130388,-256,800,2420,5,A
1781599130409,-2500,3396,4764,5,A
1781599130431,-6748,12004,6208,5,A
1781599130452,-7728,15072,6084,5,A
1781599130474,108,16552,-924,5,A
1781599130496,3344,15196,-2976,5,A
1781599130517,-1548,14112,2632,5,A
1781599130539,-8708,2376,10516,5,A
1781599130560,788,-3664,1008,5,A
1781599130582,16784,2720,-18824,5,A
1781599130604,-6388,-32768,9436,5,A
1781599130625,-6728,-32768,12272,5,A
1781599130647,14580,-32768,5872,5,A
1781599130669,5524,-32768,16056,5,A
1781599130691,12348,-32768,6664,5,A
1781599130712,6508,-32768,8328,5,A
1781599130733,1640,-30132,3712,5,A
1781599130755,-4100,-24292,6624,5,A
1781599130777,-3184,-21028,2648,5,A
1781599130799,-4008,-16492,3060,5,A
1781599130820,-3956,-16876,5276,5,A
1781599130841,-788,-16516,5532,5,A
1781599130863,10320,-9576,-4692,5,A
1781599130884,9976,0,-5308,5,A
1781599130906,4708,3316,-1740,5,A
1781599130928,-1120,2148,3604,5,A
1781599130949,-4252,6036,6312,5,A
1781599130971,-1932,14904,1356,5,A
1781599130993,-12,16684,-1356,5,A
1781599131015,-2444,13492,-200,5,A
1781599131036,-2864,13668,-444,5,A
1781599131058,-6416,-1464,1016,5,A
1781599131079,-20184,-14688,15280,5,A
1781599131101,2596,-16608,-9856,5,A
1781599131123,5052,-32768,-5020,5,A
1781599131144,-7516,-32768,13832,5,A
1781599131166,5204,-32768,11152,5,A
1781599131188,20688,-32768,-3168,5,A
1781599131209,23916,-32768,-12852,5,A
1781599131231,11156,-28832,-7096,5,A
1781599131253,-1988,-23048,2736,5,A
1781599131273,-7152,-21240,5980,5,A
1781599131296,-4556,-16552,3016,5,A
1781599131317,-1668,-12412,1116,5,A
1781599131339,-1476,-11836,2452,5,A
1781599131360,2760,-11232,448,5,A
1781599131381,5388,-5432,-2708,5,A
1781599131404,3272,220,-1532,5,A
1781599131425,-2824,180,3376,5,A
1781599131447,-5836,4440,7412,5,A
1781599131468,-812,8836,2752,5,A
1781599131490,3204,16100,-1044,5,A
1781599131511,2040,20424,-808,5,A
1781599131532,-1456,17384,20,5,A
1781599131554,-3596,7588,-2184,5,A
1781599131576,-24760,-25536,20216,5,A
1781599131598,-22796,-23964,13332,5,A
1781599131619,28304,-32768,-28492,5,A
1781599131641,21544,-32768,-4944,5,A
1781599131662,-572,-32768,15116,5,A
1781599131684,3672,-32768,11504,5,A
1781599131705,8364,-32768,788,5,A
1781599131728,3772,-25592,-3772,5,A
1781599131750,-1744,-20396,-2340,5,A
1781599131771,-7592,-15688,428,5,A
1781599131792,-8384,-13428,2156,5,A
1781599131814,-6360,-14132,3396,5,A
1781599131835,-4292,-20252,4560,5,A
1781599131857,700,-15136,60,5,A
1781599131878,3312,-8076,-2232,5,A
1781599131900,-680,-6688,1700,5,A
1781599131922,-1316,-3128,2992,5,A
1781599131943,-272,740,2972,5,A
1781599131965,572,6420,2980,5,A
1781599131986,760,11688,1048,5,A
1781599132008,-1392,14100,3544,5,A
1781599132030,-4648,14808,7212,5,A
1781599132052,-4848,11276,2972,5,A
1781599132073,-2936,3040,-3616,5,A
1781599132095,-9464,-16332,-2600,5,A
1781599132117,-30496,-32768,18980,5,A
1781599132138,-8656,-32768,-6448,5,A
1781599132160,21276,-32768,-21308,5,A
1781599132181,26952,-32768,-16992,5,A
1781599132203,15244,-32768,-6792,5,A
1781599132224,9780,-32768,-5492,5,A
1781599132246,1940,-31644,-5420,5,A
1781599132268,-5636,-24304,-4720,5,A
1781599132289,-8408,-21556,-2788,5,A
1781599132311,-6408,-20120,-3812,5,A
1781599132333,-4280,-19772,-2052,5,A
1781599132354,104,-16068,-4044,5,A
1781599132375,2396,-11208,-4664,5,A
1781599132397,676,-8860,-1536,5,A
1781599132419,-4848,-4888,5160,5,A
1781599132441,-5020,1300,7056,5,A
1781599132462,-2664,9864,5496,5,A
1781599132484,-996,20472,3124,5,A
1781599132505,-1204,25844,2548,5,A
1781599132527,-3064,22748,3048,5,A
1781599132548,-1888,14256,-180,5,A
1781599132570,-3532,6976,-1400,5,A
1781599132591,-6704,-4160,-5592,5,A
1781599132613,-13560,-32768,-1036,5,A
1781599132635,-24632,-32768,14308,5,A
1781599132657,-8752,-32768,5324,5,A
1781599132678,12180,-32768,-14656,5,A
1781599132701,15048,-32768,-17324,5,A
1781599132721,13176,-32768,-11964,5,A
1781599132742,-2260,-31008,444,5,A
1781599132765,-13076,-29848,8056,5,A
1781599132787,-9360,-25108,2112,5,A
1781599132808,-2796,-21144,-2320,5,A
1781599132830,684,-17664,-2660,5,A
1781599132851,-72,-15916,880,5,A
1781599132872,2936,-8804,-1136,5,A
1781599132894,2032,-596,132,5,A
1781599132916,1420,6132,368,5,A
1781599132938,-3116,9980,5464,5,A
1781599132960,-7152,12276,9840,5,A
1781599132980,-8412,15664,9280,5,A
1781599133002,-9376,19000,9596,5,A
1781599133024,-4416,17364,4900,5,A
1781599133046,1472,9124,-2008,5,A
1781599133067,-2600,-3612,-404,5,A
1781599133090,-25432,-21888,16120,5,A
1781599133110,-32160,-6512,11108,5,A
1781599133133,18312,-28452,-32768,5,A
1781599133154,18796,-32768,-15208,5,A
1781599133175,15100,-32768,-752,5,A
1781599133197,14480,-32768,2456,5,A
1781599133219,7040,-32768,-2336,5,A
1781599133240,-2936,-27560,908,5,A
1781599133262,552,-21132,-6284,5,A
1781599133285,2868,-22532,-7412,5,A
1781599133305,1380,-20912,-3804,5,A
1781599133326,-1756,-18356,1576,5,A
1781599133349,2136,-12256,-904,5,A
1781599133370,3920,-4792,-2648,5,A
1781599133391,608,48,1416,5,A
1781599133413,-3904,3664,6948,5,A
1781599133435,-5604,8552,10400,5,A
1781599133456,-3604,11612,7488,5,A
1781599133478,-2504,18432,6464,5,A
1781599133500,-2676,20428,6156,5,A
1781599133521,-2060,14396,3368,5,A
1781599133543,-2432,10128,-512,5,A
1781599133565,-3820,-5316,-7516,5,A
1781599133588,-27404,-17204,10216,5,A
1781599133610,-3780,-32768,-23020,5,A
1781599133631,16664,-32768,-32768,5,A
1781599133653,-8756,-32768,-5824,5,A
1781599133674,-7656,-32768,-3356,5,A
1781599133696,5292,-32768,-17352,5,A
1781599133718,2656,-32632,-18540,5,A
1781599133739,-7980,-22172,-9260,5,A
1781599133760,-6884,-20500,-10480,5,A
1781599133783,-5924,-18524,-8536,5,A
1781599133804,-4076,-12456,-6108,5,A
1781599133826,-5784,-8676,-604,5,A
1781599133847,-5768,-4472,2488,5,A
1781599133869,-2752,-816,1396,5,A
1781599133890,1512,4948,-1044,5,A
1781599133912,312,6264,2268,5,A
1781599133934,-2276,10608,6568,5,A
1781599133956,-3816,12380,7244,5,A
1781599133977,-2936,11960,8012,5,A
1781599133998,412,5980,6492,5,A
1781599134020,2060,1488,2332,5,A
1781599134041,904,-10464,-236,5,A
1781599134064,-10584,-9252,4216,5,A
1781599134085,-13456,-18156,-4968,5,A
1781599134107,-5880,-32768,-13884,5,A
1781599134128,-2968,-32768,-13900,5,A
1781599134150,-84,-32768,-16716,5,A
1781599134171,7840,-32768,-19204,5,A
1781599134193,6608,-32768,-20420,5,A
1781599134215,648,-32768,-19000,5,A
1781599134237,-5208,-25540,-18352,5,A
1781599134258,-6840,-17788,-13752,5,A
1781599134280,-7988,-13396,-7668,5,A
1781599134301,-5784,-9816,-3280,5,A
1781599134322,-3220,-7336,1000,5,A
1781599134344,-1632,-3560,3908,5,A
1781599134365,332,2620,4732,5,A
1781599134386,2256,7548,5664,5,A
1781599134409,948,12564,9124,5,A
1781599134430,-1280,17624,10964,5,A
1781599134452,-4084,16628,10112,5,A
1781599134474,-5252,12892,8496,5,A
1781599134495,-4760,7164,3304,5,A
1781599134517,-11188,-7252,-124,5,A
1781599134539,-22972,-12264,148,5,A
1781599134561,-11000,-27684,-21164,5,A
1781599134582,8936,-32768,-32268,5,A
1781599134604,1992,-32768,-15596,5,A
1781599134625,4932,-32768,-18152,5,A
1781599134647,5696,-32768,-18584,5,A
1781599134668,672,-28644,-14456,5,A
1781599134690,-2856,-25504,-11880,5,A
1781599134712,-6484,-18976,-6368,5,A
1781599134734,-7148,-15344,-2404,5,A
1781599134754,-3672,-11472,-288,5,A
1781599134776,732,-8920,-304,5,A
1781599134797,3184,-2940,76,5,A
1781599134819,1940,4112,3840,5,A
1781599134840,2544,12396,6748,5,A
1781599134862,2548,14728,6432,5,A
1781599134883,2188,20676,5832,5,A
1781599134906,-172,25856,5868,5,A
1781599134927,-1308,22352,2560,5,A
1781599134949,-7052,9176,792,5,A
1781599134970,-16360,-768,1052,5,A
1781599134993,-22652,-21140,-1156,5,A
1781599135014,-12952,-32768,-16764,5,A
1781599135036,11860,-32768,-22860,5,A
1781599135058,14536,-32768,-19500,5,A
1781599135079,3892,-32768,-13104,5,A
1781599135100,-7328,-26724,-4124,5,A
1781599135122,-8032,-23628,-932,5,A
1781599135144,-9692,-25548,1832,5,A
1781599135166,-5348,-15016,-3648,5,A
1781599135187,-5460,-7304,-1296,5,A
1781599135208,-10800,-840,8936,5,A
1781599135229,-8816,-448,7740,5,A
1781599135251,-5072,6260,8048,5,A
1781599135272,980,10688,4808,5,A
1781599135294,2752,16628,3112,5,A
1781599135317,3632,18228,1328,5,A
1781599135337,2552,18276,1096,5,A
1781599135359,3284,9848,-1752,5,A
1781599135380,-360,-1092,-1108,5,A
1781599135402,-10516,-15284,2860,5,A
1781599135425,-5684,-32768,-9756,5,A
1781599135447,13728,-32768,-17100,5,A
1781599135468,5052,-32768,-3784,5,A
1781599135489,-7136,-32768,6076,5,A
1781599135510,-1956,-32768,380,5,A
1781599135532,-4476,-27012,1924,5,A
1781599135554,-5528,-25060,2584,5,A
1781599135576,-2800,-23628,356,5,A
1781599135597,-4824,-23532,3308,5,A
1781599135619,152,-15292,-636,5,A
1781599135640,1796,-15652,688,5,A
1781599135662,4820,-7452,-884,5,A
1781599135684,2728,248,1496,5,A
1781599135705,2756,4596,2864,5,A
1781599135726,2572,8196,2028,5,A
1781599135748,-220,6884,4860,5,A
1781599135769,-2636,10368,5212,5,A
1781599135791,-5556,15764,7340,5,A
1781599135813,-6704,16396,6984,5,A
1781599135834,-7360,13496,3620,5,A
1781599135856,-12712,-1400,5756,5,A
1781599135877,-3248,-23820,-5920,5,A
1781599135900,20312,-32768,-25040,5,A
1781599135921,17968,-32768,-15452,5,A
1781599135942,5064,-32768,2492,5,A
1781599135964,960,-32768,1608,5,A
1781599135986,1400,-32768,424,5,A
1781599136007,-5372,-31912,2744,5,A
1781599136029,-5396,-29200,2396,5,A
1781599136051,-3612,-23312,-1188,5,A
1781599136073,-3904,-14516,192,5,A
1781599136095,-6024,-9044,2544,5,A
1781599136115,-4804,-888,3284,5,A
1781599136137,-3848,7980,4352,5,A
1781599136158,-6000,9508,8008,5,A
1781599136180,-2616,10304,7988,5,A
1781599136202,-4124,11340,4348,5,A
1781599136224,-152,14960,2848,5,A
1781599136245,-2876,14604,3232,5,A
1781599136267,-3416,9900,-932,5,A
1781599136288,-3724,-9624,-2592,5,A
1781599136310,-1492,-19124,-5148,5,A
1781599136331,9096,-32768,-16204,5,A
1781599136354,24396,-32768,-15820,5,A
1781599136375,19764,-32768,-9568,5,A
1781599136396,3632,-32768,-420,5,A
1781599136418,-10748,-27704,7296,5,A
1781599136439,-8272,-22948,8240,5,A
1781599136461,-5284,-21456,4564,5,A
1781599136483,-2188,-20556,940,5,A
1781599136505,-4752,-15848,3940,5,A
1781599136527,-4092,-12440,5216,5,A
1781599136548,-2412,-6244,4528,5,A
1781599136569,-2756,-244,5956,5,A
1781599136591,-3464,3556,8024,5,A
1781599136613,-4944,7000,10236,5,A
1781599136634,-964,9212,7388,5,A
1781599136656,1668,11320,3752,5,A
1781599136677,1072,9828,2796,5,A
1781599136699,-732,4736,1368,5,A
1781599136721,-6484,-1772,4452,5,A
1781599136742,2700,-9604,-6844,5,A
1781599136764,13984,-25224,-16184,5,A
1781599136786,17120,-32768,-12912,5,A
1781599136807,10696,-32768,-4212,5,A
1781599136829,9236,-32768,-3712,5,A
1781599136850,7868,-32768,-3916,5,A
1781599136872,2076,-32768,-1124,5,A
1781599136893,-92,-26212,316,5,A
1781599136915,-472,-26668,-376,5,A
1781599136937,-1476,-21756,-640,5,A
1781599136958,-2100,-18416,-160,5,A
1781599136980,-2060,-12020,-32,5,A
1781599137002,-1668,-6200,1160,5,A
1781599137023,-2360,-1616,4228,5,A
1781599137045,-2656,3820,5624,5,A
1781599137066,-1720,5920,5912,5,A
1781599137087,384,6768,5364,5,A
1781599137109,2888,7032,2772,5,A
1781599137132,2344,6516,2764,5,A
1781599137152,556,2740,3412,5,A
1781599137174,-1412,1628,3460,5,A
1781599137196,-2136,-7840,1472,5,A
1781599137217,-6440,-22008,5300,5,A
1781599137239,1292,-32768,-1796,5,A
1781599137261,11296,-32768,-6828,5,A
1781599137282,6912,-32768,2144,5,A
1781599137304,572,-32768,4720,5,A
1781599137325,-3804,-32768,4368,5,A
1781599137347,-5236,-26772,4648,5,A
1781599137368,-2940,-19812,536,5,A
1781599137391,-2248,-13104,572,5,A
1781599137412,-1152,-5280,184,5,A
1781599137433,568,4,76,5,A
1781599137455,2660,2960,-76,5,A
1781599137477,1532,4648,2184,5,A
1781599137498,-660,4400,4660,5,A
1781599137520,-3428,2892,6524,5,A
1781599137541,-1888,1412,4708,5,A
1781599137563,-48,-3352,2812,5,A
1781599137584,476,-2804,1700,5,A
1781599137607,-716,-1668,1412,5,A
1781599137627,-4352,-8964,2644,5,A
1781599137649,-168,-24820,-2308,5,A
1781599137671,13484,-25328,-13568,5,A
1781599137693,7256,-30308,-7392,5,A
1781599137715,-1184,-32768,760,5,A
1781599137736,3932,-32768,-4528,5,A
1781599137758,16768,-32768,-16128,5,A
1781599137779,7692,-32768,-9084,5,A
1781599137801,948,-29808,-4980,5,A
1781599137822,248,-26624,-3672,5,A
1781599137844,-2072,-23824,-1428,5,A
1781599137866,-1232,-18260,-2296,5,A
1781599137887,-1776,-13360,-168,5,A
1781599137909,-2372,-8280,1576,5,A
1781599137931,-128,-3184,1156,5,A
1781599137952,888,1620,2832,5,A
1781599137973,-144,6312,4656,5,A
1781599137995,-312,11232,5152,5,A
1781599138017,-860,15408,5240,5,A
1781599138038,-2456,17072,5424,5,A
1781599138061,-4640,13540,4172,5,A
1781599138081,-6176,4504,716,5,A
1781599138104,-8392,-15988,-2516,5,A
1781599138125,-13740,-32768,-1580,5,A
1781599138147,10024,-32768,-22804,5,A
1781599138168,32767,-32768,-32280,5,A
1781599138191,20048,-32768,-24312,5,A
1781599138212,-1204,-32768,-6900,5,A
1781599138234,-9668,-19560,2988,5,A
1781599138255,-11156,-18320,3904,5,A
1781599138276,-8564,-16820,2120,5,A
1781599138298,-7548,-18396,2352,5,A
1781599138320,-4220,-12808,836,5,A
1781599138341,-1156,-5152,620,5,A
1781599138363,-772,1112,2376,5,A
1781599138384,-1956,4464,4376,5,A
1781599138406,-1680,4780,5564,5,A
1781599138427,-136,7332,5424,5,A
1781599138449,2676,7992,3248,5,A
1781599138471,824,9680,4468,5,A
1781599138491,336,12616,2848,5,A
1781599138513,-2772,7032,2268,5,A
1781599138535,-7556,-2248,2916,5,A
1781599138556,-4752,-9664,-5068,5,A
1781599138578,1940,-32768,-12484,5,A
1781599138600,-2624,-32768,1000,5,A
1781599138621,10812,-32768,-8948,5,A
1781599138644,20924,-32768,-17760,5,A
1781599138665,10084,-32768,-9352,5,A
1781599138686,-52,-30480,-3164,5,A
1781599138708,-3844,-24840,-784,5,A
1781599138729,-5628,-17132,224,5,A
1781599138752,-6132,-13968,876,5,A
1781599138772,-5376,-13360,3144,5,A
1781599138794,-8,-4124,-444,5,A
1781599138815,768,1780,1040,5,A
1781599138837,-396,7700,3376,5,A
1781599138859,-2908,12544,5132,5,A
1781599138880,-2480,13164,3788,5,A
1781599138902,-2104,10360,3980,5,A
1781599138924,-892,7980,2380,5,A
1781599138945,-128,4708,368,5,A
1781599138967,-6752,-4708,4712,5,A
1781599138988,-8640,-8164,1180,5,A
1781599139010,3628,-29104,-13008,5,A
1781599139032,11028,-32768,-4808,5,A
1781599139054,10564,-32768,-884,5,A
1781599139076,11680,-32768,-4456,5,A
1781599139096,3288,-32768,-1200,5,A
1781599139119,-3292,-32768,5808,5,A
1781599139140,2308,-26296,1120,5,A
1781599139161,4416,-15328,-3924,5,A
1781599139183,404,-9044,-572,5,A
1781599139204,-2472,-4060,1504,5,A
1781599139226,-3744,368,3604,5,A
1781599139248,-3920,3104,4464,5,A
1781599139270,-4724,3788,6772,5,A
1781599139292,-5496,3152,5320,5,A
1781599139314,-3288,5548,2108,5,A
1781599139335,496,5480,-1492,5,A
1781599139357,472,2864,-2404,5,A
1781599139378,-2192,-2604,-644,5,A
1781599139400,-4628,-4936,-416,5,A
1781599139423,4824,-14688,-13200,5,A
1781599139444,9204,-32768,-7496,5,A
1781599139465,1824,-32768,5852,5,A
1781599139487,8892,-32768,1056,5,A
1781599139508,3808,-32768,1604,5,A
1781599139529,-3048,-32768,3772,5,A
1781599139551,-912,-32364,2580,5,A
1781599139573,2200,-26776,-252,5,A
1781599139595,2632,-25832,128,5,A
1781599139616,3776,-18448,-828,5,A
1781599139638,2888,-13636,928,5,A
1781599139659,3940,-10520,624,5,A
1781599139681,3492,-2392,220,5,A
1781599139702,-136,3984,2352,5,A
1781599139724,-220,5588,3224,5,A
1781599139746,-2780,7432,6148,5,A
1781599139768,-2364,10388,4852,5,A
1781599139789,-3832,9160,5768,5,A
1781599139810,-4912,10576,7116,5,A
1781599139832,-5640,11360,3220,5,A
1781599139854,-6280,396,-312,5,A
1781599139875,4812,-10972,-10976,5,A
1781599139897,18232,-32768,-21656,5,A
1781599139919,21336,-32768,-10780,5,A
1781599139940,11092,-32768,8440,5,A
1781599139962,10308,-32768,-4068,5,A
1781599139983,-4400,-25120,4168,5,A
1781599140006,-4708,-19436,6632,5,A
1781599140027,-996,-14908,3504,5,A
1781599140048,584,-16024,2304,5,A
1781599140070,736,-18908,2468,5,A
1781599140091,3012,-10556,460,5,A
1781599140113,2800,-336,1432,5,A
1781599140135,2884,2952,2588,5,A
1781599140156,1992,6020,2836,5,A
1781599140178,1208,6144,3576,5,A
1781599140199,1516,10280,2408,5,A
1781599140221,176,10276,2408,5,A
1781599140242,-1240,11900,1460,5,A
1781599140264,-3244,8108,-744,5,A
1781599140286,-11116,-8968,2540,5,A
1781599140307,1412,-13840,-14412,5,A
1781599140330,9756,-32768,-26020,5,A
1781599140351,24372,-32768,-24076,5,A
1781599140372,13292,-32768,-10704,5,A
1781599140394,-2444,-32768,-4264,5,A
1781599140415,-9312,-20344,2376,5,A
1781599140437,-7472,-13848,3036,5,A
1781599140459,-3460,-11080,988,5,A
1781599140480,-168,-9160,-388,5,A
1781599140501,32,-6508,-300,5,A
1781599140523,1800,-4660,-484,5,A
1781599140545,-704,-1392,1960,5,A
1781599140566,128,1804,3588,5,A
1781599140587,-2924,3892,5612,5,A
1781599140610,-7372,3896,8624,5,A
1781599140631,-800,5376,-100,5,A
1781599140652,1908,7524,-4056,5,A
1781599140674,-3424,-3192,-2164,5,A
1781599140696,-11244,-24792,6096,5,A
1781599140718,12824,-32768,-20992,5,A
1781599140740,32767,-32768,-32768,5,A
1781599140761,32767,-32768,-25992,5,A
1781599140782,12628,-32768,-11796,5,A
1781599140804,-3580,-20232,2920,5,A
1781599140826,-9708,-19444,10516,5,A
1781599140847,-5040,-19328,5100,5,A
1781599140868,244,-22440,324,5,A
1781599140890,4992,-22244,-2200,5,A
1781599140912,3464,-21320,-2152,5,A
1781599140934,1840,-14940,-208,5,A
1781599140955,-440,-6788,2032,5,A
1781599140977,-2024,-5120,4164,5,A
1781599140999,-3736,1412,4996,5,A
1781599141020,-4636,2756,7636,5,A
1781599141042,-5496,3488,7996,5,A
1781599141064,-5916,4620,7740,5,A
1781599141085,-5588,9080,6784,5,A
1781599141106,-6892,9388,6796,5,A
1781599141128,-6472,10396,3580,5,A
1781599141150,-3256,11460,-1760,5,A
1781599141172,-232,2080,-5844,5,A
1781599141193,-4624,-10788,-7872,5,A
1781599141215,8332,-32768,-16124,5,A
1781599141236,8272,-32768,-4584,5,A
1781599141258,1424,-32768,8232,5,A
1781599141280,4108,-32768,1172,5,A
1781599141301,-5524,-31348,4668,5,A
1781599141323,-11208,-20344,10960,5,A
1781599141344,-6124,-20596,6236,5,A
1781599141367,-2096,-15276,1868,5,A
1781599141388,-1336,-11520,2760,5,A
1781599141409,-2096,-8000,3464,5,A
1781599141431,-1576,-3240,3700,5,A
1781599141452,-1124,1580,5832,5,A
1781599141474,-3696,1288,8484,5,A
1781599141495,-2340,3396,8304,5,A
1781599141517,1416,6408,5204,5,A
1781599141539,2976,12464,3216,5,A
1781599141560,5444,10660,484,5,A
1781599141581,1660,7768,1148,5,A
1781599141604,-4988,-1512,1936,5,A
1781599141626,-984,-9944,-9764,5,A
1781599141647,4912,-32768,-13812,5,A
1781599141668,13320,-32768,-12196,5,A
1781599141690,12384,-32768,-6468,5,A
1781599141711,3236,-32768,-3008,5,A
1781599141734,220,-32768,-4348,5,A
1781599141755,-944,-26528,-3452,5,A
1781599141777,-3040,-23792,-2204,5,A
1781599141798,-440,-15624,-4676,5,A
1781599141820,-1216,-11984,-2812,5,A
1781599141841,-2908,-6128,468,5,A
1781599141862,-1856,-760,2472,5,A
1781599141883,-972,2160,4416,5,A
1781599141906,-1696,4116,6096,5,A
1781599141928,-3436,4424,6864,5,A
1781599141949,-1012,7740,940,5,A
1781599141971,-5768,9704,3752,5,A
1781599141992,-6072,20444,6184,5,A
1781599142015,-3692,22936,916,5,A
1781599142036,-4668,-3584,-2888,5,A
1781599142057,-8960,-21916,-4456,5,A
1781599142080,15160,-32768,-31376,5,A
1781599142101,22408,-32768,-20928,5,A
1781599142122,9900,-32768,-6964,5,A
1781599142143,48,-32768,-2604,5,A
1781599142166,-4708,-26568,-836,5,A
1781599142187,-3096,-24352,-1612,5,A
1781599142209,-2956,-19772,-2904,5,A
1781599142230,-5664,-17932,100,5,A
1781599142252,-5296,-13476,504,5,A
1781599142273,-2612,-5008,-236,5,A
1781599142295,-2568,2028,2708,5,A
1781599142317,-2076,7232,4148,5,A
1781599142338,-3828,10148,7412,5,A
1781599142360,-3804,14876,6332,5,A
1781599142382,-4752,12200,6588,5,A
1781599142403,-2500,9428,3652,5,A
1781599142424,-1944,7472,4,5,A
1781599142446,-1144,1120,-5056,5,A
1781599142468,-6720,-26760,-1500,5,A
1781599142489,2944,-29416,-14692,5,A
1781599142513,24620,-31120,-32768,5,A
1781599142534,26164,-32768,-30312,5,A
1781599142556,12824,-32768,-17392,5,A
1781599142577,2328,-32768,-9640,5,A
1781599142598,-5560,-31908,-5380,5,A
1781599142619,-7512,-21888,-2940,5,A
1781599142641,-5620,-17596,-3288,5,A
1781599142663,-3340,-13576,-4000,5,A
1781599142684,-2912,-9096,-2164,5,A
1781599142706,-3564,-6240,1588,5,A
1781599142727,-3448,-2944,3244,5,A
1781599142749,-2380,1364,3372,5,A
1781599142770,-1280,3908,5064,5,A
1781599142792,-1416,8052,5176,5,A
1781599142814,-300,11384,4232,5,A
1781599142835,-3024,12636,5228,5,A
1781599142857,-4652,11204,2904,5,A
1781599142879,-5052,9588,-1992,5,A
1781599142900,-10672,-4348,-7352,5,A
1781599142922,-13928,-27080,-15384,5,A
1781599142944,4572,-32768,-32768,5,A
1781599142966,28320,-32768,-32768,5,A
1781599142987,10424,-32768,-25496,5,A
1781599143009,-5148,-32404,-9888,5,A
1781599143030,-6820,-27816,-4020,5,A
1781599143052,-9056,-19816,-1332,5,A
1781599143074,-10760,-16284,3312,5,A
1781599143095,-4900,-12552,-932,5,A
1781599143117,-2372,-5956,-2144,5,A
1781599143138,-3112,-1360,812,5,A
1781599143160,-3800,5656,3800,5,A
1781599143181,-6264,7508,8128,5,A
1781599143204,-5012,9092,7268,5,A
1781599143225,-4396,6812,6548,5,A
1781599143246,-1908,5640,3440,5,A
1781599143268,-2600,5404,2556,5,A
1781599143290,-5148,2896,3756,5,A
1781599143311,-3704,3988,-2360,5,A
1781599143333,4772,-18692,-14832,5,A
1781599143355,12472,-32768,-15220,5,A
1781599143376,11628,-32768,-10500,5,A
1781599143398,13588,-32768,-10604,5,A
1781599143420,4404,-32768,-5740,5,A
1781599143441,-2940,-27696,1552,5,A
1781599143462,-6492,-26404,4748,5,A
1781599143485,-4920,-22640,2936,5,A
1781599143506,-3544,-12852,1508,5,A
1781599143527,-3732,-8124,3148,5,A
1781599143549,-2848,-3856,3460,5,A
1781599143571,-2548,2080,4412,5,A
1781599143593,-2236,4568,5592,5,A
1781599143614,-2384,5784,7364,5,A
1781599143636,-1972,9648,4616,5,A
1781599143656,-1800,9536,4112,5,A
1781599143678,-1140,10020,1508,5,A
1781599143700,-2404,8116,928,5,A
1781599143722,-2844,2452,-3532,5,A
1781599143743,840,-20784,-12604,5,A
1781599143765,20380,-32768,-29292,5,A
1781599143787,13600,-32768,-17788,5,A
1781599143808,1128,-32768,-3432,5,A
1781599143830,-4236,-32768,2876,5,A
1781599143851,-2608,-30820,-768,5,A
1781599143874,-4532,-23148,2056,5,A
1781599143894,-2988,-23804,-32,5,A
1781599143916,-3680,-23312,112,5,A
1781599143938,-5944,-18024,2124,5,A
1781599143960,-5444,-12692,1616,5,A
1781599143981,-3764,-5736,1664,5,A
1781599144003,-4028,-152,2736,5,A
1781599144024,-4080,2784,5008,5,A
1781599144046,-516,4568,6532,5,A
1781599144068,-1224,6968,5864,5,A
1781599144089,-268,9648,5136,5,A
1781599144111,1620,14324,1280,5,A
1781599144132,-440,3980,348,5,A
1781599144153,-4128,-8192,-936,5,A
1781599144176,6060,-26424,-14884,5,A
1781599144197,14808,-32768,-20580,5,A
1781599144218,5368,-32768,-5516,5,A
1781599144239,736,-32768,-124,5,A
1781599144261,44,-32768,584,5,A
1781599144284,-2664,-32484,2372,5,A
1781599144305,-7668,-25976,6040,5,A
1781599144327,-5968,-25324,3392,5,A
1781599144348,-3828,-19340,500,5,A
1781599144369,-2392,-16052,576,5,A
1781599144391,-1520,-8864,936,5,A
1781599144412,-332,-2532,1824,5,A
1781599144433,1452,2360,2244,5,A
1781599144457,1940,3760,3064,5,A
1781599144478,624,7060,3776,5,A
1781599144499,-1884,8396,5764,5,A
1781599144520,-3664,8404,8248,5,A
1781599144542,-1492,6548,2424,5,A
1781599144563,-720,1804,-2032,5,A
1781599144586,-428,-8032,-6380,5,A
1781599144607,-2532,-30092,-6304,5,A
1781599144629,432,-32768,-9452,5,A
1781599144651,7304,-32768,-12132,5,A
1781599144672,8408,-32768,-8324,5,A
1781599144693,1988,-32768,-3784,5,A
1781599144715,-1596,-28116,-372,5,A
1781599144737,-1592,-20840,-628,5,A
1781599144758,-980,-19372,100,5,A
1781599144779,-1960,-11772,816,5,A
1781599144801,-1440,-8172,1996,5,A
1781599144823,-436,-8012,2296,5,A
1781599144844,-1556,-5432,4364,5,A
1781599144866,-1056,-1604,5236,5,A
1781599144887,876,-1424,3680,5,A
1781599144909,1580,1156,3460,5,A
1781599144930,1040,1348,3456,5,A
1781599144952,-116,5232,4376,5,A
1781599144973,-652,2748,2344,5,A
1781599144996,-3408,-1364,1140,5,A
1781599145017,-1124,-20496,-6264,5,A
1781599145041,2128,-32768,-9872,5,A
1781599145062,11052,-32768,-16640,5,A
1781599145083,8572,-32768,-9348,5,A
1781599145106,1484,-32768,-2540,5,A
1781599145127,-2092,-31868,-572,5,A
1781599145149,-2388,-21976,144,5,A
1781599145171,-1596,-22848,-748,5,A
1781599145192,-832,-16388,-836,5,A
1781599145213,-2544,-9632,1280,5,A
1781599145235,-3296,-8420,3224,5,A
1781599145256,-2796,-6268,4068,5,A
1781599145278,-3740,-2416,5052,5,A
1781599145300,-3904,448,7020,5,A
1781599145320,-3840,4528,9140,5,A
1781599145343,680,9716,5932,5,A
1781599145364,1792,11132,4564,5,A
1781599145386,3072,9536,1608,5,A
1781599145407,5420,-1636,-2692,5,A
1781599145429,3804,-8368,-4012,5,A
1781599145451,-6968,-21668,5304,5,A
1781599145473,7188,-32768,-9392,5,A
1781599145494,27508,-32768,-18536,5,A
1781599145516,11028,-32768,-308,5,A
1781599145537,-4376,-32768,6960,5,A
1781599145560,-5452,-29060,5196,5,A
1781599145581,-5636,-22452,4012,5,A
1781599145603,-3288,-21872,1580,5,A
1781599145624,-288,-17540,-936,5,A
1781599145646,-124,-10616,268,5,A
1781599145668,-1456,-4464,3144,5,A
1781599145689,-1168,212,3960,5,A
1781599145710,112,6520,5700,5,A
1781599145731,-136,6644,5904,5,A
1781599145754,1196,11696,3824,5,A
1781599145775,-1460,12780,4044,5,A
1781599145796,-4524,10504,3352,5,A
1781599145819,-6776,1668,1652,5,A
1781599145840,-7132,-14280,-708,5,A
1781599145862,-644,-25544,-10360,5,A
1781599145883,4848,-32768,-16916,5,A
1781599145905,13164,-32768,-11116,5,A
1781599145926,8652,-32768,-9804,5,A
1781599145949,-4724,-32768,-2484,5,A
1781599145970,-8760,-24588,1928,5,A
1781599145992,-6292,-21596,-180,5,A
1781599146013,-1964,-17312,-3416,5,A
1781599146035,-2704,-11184,-636,5,A
1781599146056,-2720,-5108,1612,5,A
1781599146077,-3452,-532,4960,5,A
1781599146099,-3820,3036,7044,5,A
1781599146122,-2368,6952,6432,5,A
1781599146142,-116,10236,4184,5,A
1781599146164,2368,11640,1296,5,A
1781599146186,-204,10984,2364,5,A
1781599146207,-984,9284,-348,5,A
1781599146229,-7160,-3808,2468,5,A
1781599146251,-5428,-10920,-3008,5,A
1781599146272,6844,-28872,-19548,5,A
1781599146294,19784,-32768,-23244,5,A
1781599146316,12896,-32768,-9172,5,A
1781599146337,2452,-32768,-3036,5,A
1781599146358,-8516,-32768,5012,5,A
1781599146380,-7924,-20348,3104,5,A
1781599146402,-3952,-14784,664,5,A
1781599146424,-2368,-16060,636,5,A
1781599146445,-2412,-17044,1484,5,A
1781599146467,-2144,-10604,784,5,A
1781599146488,-3000,-5852,2920,5,A
1781599146511,-4668,-3836,5920,5,A
1781599146531,-4544,1432,7252,5,A
