timestamp,ax,ay,az,label,subject_id
1781611456773,-2796,12420,1420,4,A
1781611456773,-2660,10204,-2676,4,A
1781611456775,-1768,8556,-3792,4,A
1781611456776,-2468,7336,-6368,4,A
1781611456777,-1584,8740,-3908,4,A
1781611456778,-1340,9448,-848,4,A
1781611456778,-2040,11292,4388,4,A
1781611456779,-4980,21232,13960,4,A
1781611456779,-7140,27324,19540,4,A
1781611456779,-4476,26568,21748,4,A
1781611456781,-984,25296,19736,4,A
1781611456782,-2512,20012,12456,4,A
1781611456783,-1620,13952,3920,4,A
1781611456784,-332,9752,-2096,4,A
1781611456784,-84,6192,-10044,4,A
1781611456785,312,5656,-12604,4,A
1781611456786,-1796,7880,-9688,4,A
1781611456787,-1884,9448,-5752,4,A
1781611456788,-2044,10632,9068,4,A
1781611456789,-9876,32767,30124,4,A
1781611456789,-15692,32767,25660,4,A
1781611456791,-3496,22764,15452,4,A
1781611456791,-12,12212,6744,4,A
1781611456792,2332,7224,-960,4,A
1781611456793,2248,5756,-6244,4,A
1781611456794,1976,5608,-8456,4,A
1781611456794,1172,6480,-10552,4,A
1781611456795,988,7304,-8648,4,A
1781611456796,-368,7348,1412,4,A
1781611456797,-6336,21172,18928,4,A
1781611456797,-15048,32767,27740,4,A
1781611456798,-10704,31800,23300,4,A
1781611456799,-2612,22540,16140,4,A
1781611456800,-376,14332,8388,4,A
1781611456800,1280,9168,608,4,A
1781611456801,608,4540,-9928,4,A
1781611456801,1244,2912,-15512,4,A
1781611456802,1072,6740,-13340,4,A
1781611456803,-300,6440,-8324,4,A
1781611456803,-2032,6652,3244,4,A
1781611456804,-10708,27808,26140,4,A
1781611456805,-17664,32767,32108,4,A
1781611456805,-6968,27748,23828,4,A
1781611456807,64,17672,15792,4,A
1781611456807,1276,13000,8760,4,A
1781611456808,1760,8632,1264,4,A
1781611456809,764,6252,-7652,4,A
1781611456809,1372,5600,-12576,4,A
1781611456811,184,6576,-10992,4,A
1781611456812,-1536,8708,-10928,4,A
1781611456812,-1412,7828,-7828,4,A
1781611456813,-1560,9836,740,4,A
1781611456814,-6920,22776,16272,4,A
1781611456814,-12444,32767,21804,4,A
1781611456815,-6192,26128,18100,4,A
1781611456816,260,18928,13644,4,A
1781611456816,532,16124,8744,4,A
1781611456817,192,12936,2932,4,A
1781611456818,-1800,12348,604,4,A
1781611456818,-1904,11196,400,4,A
1781611456818,-2824,13752,2444,4,A
1781611456819,-3508,16424,4088,4,A
1781611456820,-2884,15208,5068,4,A
1781611456820,-2688,16168,5896,4,A
1781611456822,-2548,17116,6412,4,A
1781611456822,-4316,19940,8576,4,A
1781611456823,-3136,18508,12392,4,A
1781611456824,-4108,20852,13252,4,A
1781611456824,-2784,17628,9832,4,A
1781611456825,-480,11160,3096,4,A
1781611456825,620,9120,-1144,4,A
1781611456826,-28,9064,-3640,4,A
1781611456827,-428,8980,-6260,4,A
1781611456827,-1276,9144,-6404,4,A
1781611456828,-1796,9308,-1676,4,A
1781611456829,-4352,17144,10720,4,A
1781611456830,-8732,28188,23124,4,A
1781611456830,-8452,30372,21768,4,A
1781611456831,-2172,23476,16616,4,A
1781611456831,656,18112,11400,4,A
1781611456832,2552,12528,6272,4,A
1781611456832,2604,10288,1104,4,A
1781611456833,280,7280,-7456,4,A
1781611456834,-1248,8360,-8868,4,A
1781611456834,-1316,10580,-6544,4,A
1781611456835,-1692,10764,-4612,4,A
1781611456835,-2016,11312,716,4,A
1781611456835,-5428,23072,15812,4,A
1781611456837,-8744,32767,23824,4,A
1781611456837,-3740,27812,17356,4,A
1781611456837,1316,17344,9256,4,A
1781611456838,3252,10472,2452,4,A
1781611456838,2264,7668,-4324,4,A
1781611456839,184,5692,-9936,4,A
1781611456840,-1932,7240,-11004,4,A
1781611456840,-1784,6920,-9960,4,A
1781611456857,-956,7748,-6540,4,A
1781611456879,-2528,10788,1632,4,A
1781611456901,-8724,28632,17464,4,A
1781611456922,-11068,32767,23640,4,A
1781611456943,-3760,30384,20156,4,A
1781611456965,-1144,24256,14848,4,A
1781611456987,-40,17664,9544,4,A
1781611457008,-924,13292,3084,4,A
1781611457030,-804,7828,-5456,4,A
1781611457052,-728,4068,-12904,4,A
1781611457072,288,3748,-13972,4,A
1781611457094,524,5340,-13680,4,A
1781611457116,-384,6216,-11916,4,A
1781611457137,348,6772,-1596,4,A
1781611457159,-3236,24684,23716,4,A
1781611457181,-14428,32767,32767,4,A
1781611457202,-6924,32767,23124,4,A
1781611457223,180,20380,14376,4,A
1781611457245,3528,12284,6140,4,A
1781611457267,2652,5952,-5628,4,A
1781611457287,940,3508,-14184,4,A
1781611457310,772,984,-19948,4,A
1781611457331,1552,-4,-18004,4,A
1781611457353,1760,2364,-10656,4,A
1781611457375,-672,10172,8288,4,A
1781611457396,-14312,32767,32767,4,A
1781611457418,-16432,32767,32767,4,A
1781611457439,-4872,32767,24088,4,A
1781611457461,-180,16580,11596,4,A
1781611457483,2608,5924,860,4,A
1781611457504,4352,76,-7904,4,A
1781611457526,4320,-3392,-16216,4,A
1781611457549,4572,-6308,-22352,4,A
1781611457570,3208,-4248,-20184,4,A
1781611457591,2420,-688,-10700,4,A
1781611457613,-2084,11844,7480,4,A
1781611457635,-23364,32767,25992,4,A
1781611457656,-23816,32767,24460,4,A
1781611457678,-10648,32767,19296,4,A
1781611457700,-4832,19952,9256,4,A
1781611457721,2228,6116,1668,4,A
1781611457742,3204,3076,-3072,4,A
1781611457764,5156,-2348,-10148,4,A
1781611457785,5356,-5336,-16668,4,A
1781611457807,3628,-3404,-16088,4,A
1781611457828,1616,676,-9404,4,A
1781611457849,-7968,17864,9756,4,A
1781611457872,-26472,32767,23396,4,A
1781611457894,-19068,32767,22672,4,A
1781611457915,-7052,32767,18428,4,A
1781611457938,-1516,16264,10640,4,A
1781611457958,2804,4108,2168,4,A
1781611457981,4596,-1436,-8756,4,A
1781611458002,6036,-4428,-14508,4,A
1781611458023,5524,-4148,-17168,4,A
1781611458045,3304,-180,-15424,4,A
1781611458067,2212,1344,-7216,4,A
1781611458088,-11632,25852,16348,4,A
1781611458110,-29872,32767,27968,4,A
1781611458132,-17468,32767,23324,4,A
1781611458153,-6560,29916,18072,4,A
1781611458174,-420,13628,9692,4,A
1781611458195,4116,3128,-240,4,A
1781611458218,6936,-4152,-10384,4,A
1781611458239,4968,-6536,-18828,4,A
1781611458261,3832,-4552,-19936,4,A
1781611458283,3016,-2400,-16092,4,A
1781611458304,1684,416,-6732,4,A
1781611458326,-14544,29772,16924,4,A
1781611458347,-27180,32767,27716,4,A
1781611458369,-12320,32767,24316,4,A
1781611458391,-4128,30916,18320,4,A
1781611458412,-1784,13172,6368,4,A
1781611458434,1836,3940,-928,4,A
1781611458456,-184,5736,-4892,4,A
1781611458477,2228,920,-9308,4,A
1781611458499,2696,2192,-11484,4,A
1781611458521,3792,1580,-13892,4,A
1781611458542,2164,5252,-8304,4,A
1781611458564,-3048,12616,5160,4,A
1781611458586,-16748,32767,26856,4,A
1781611458607,-16560,32767,28392,4,A
1781611458628,-5896,30376,19108,4,A
1781611458651,-1772,16544,10056,4,A
1781611458672,1680,5756,-1100,4,A
1781611458694,5532,-4492,-14436,4,A
1781611458715,5016,-6160,-20952,4,A
1781611458737,3408,-4000,-20108,4,A
1781611458758,988,208,-13524,4,A
1781611458779,-1052,5196,-1132,4,A
1781611458802,-10924,32096,24452,4,A
1781611458824,-17908,32767,32767,4,A
1781611458845,-10688,32767,25444,4,A
1781611458866,-4764,26952,14004,4,A
1781611458888,-1508,14536,5424,4,A
1781611458909,-416,5756,-3680,4,A
1781611458932,2228,-964,-11760,4,A
1781611458953,3156,-3136,-15688,4,A
1781611458974,3244,-3580,-17480,4,A
1781611458996,1224,-2304,-14524,4,A
1781611459018,-1460,3788,-2008,4,A
1781611459039,-8780,22688,19312,4,A
1781611459061,-13820,32767,32767,4,A
1781611459083,-9528,32767,32020,4,A
1781611459104,-5008,31312,19640,4,A
1781611459126,-2764,18164,9668,4,A
1781611459146,820,7564,-316,4,A
1781611459169,2620,-1544,-13180,4,A
1781611459191,2360,-1796,-16760,4,A
1781611459212,3560,-5492,-21080,4,A
1781611459234,3156,-4916,-17148,4,A
1781611459255,2676,-2800,-7648,4,A
1781611459276,-2748,12492,8912,4,A
1781611459299,-14064,32767,28792,4,A
1781611459321,-15780,32767,32767,4,A
1781611459343,-4768,32767,27004,4,A
1781611459363,-2552,23280,12380,4,A
1781611459385,-220,10612,3672,4,A
1781611459407,-1872,7160,-2936,4,A
1781611459428,1360,1680,-9796,4,A
1781611459451,3520,-3660,-16576,4,A
1781611459472,3848,-5972,-20400,4,A
1781611459494,1584,-1596,-15644,4,A
1781611459515,-992,2136,-6640,4,A
1781611459537,-9380,20024,15096,4,A
1781611459558,-17732,32767,32767,4,A
1781611459581,-10976,32767,31912,4,A
1781611459602,-4592,32767,20108,4,A
1781611459623,156,16784,9580,4,A
1781611459645,2256,7712,2816,4,A
1781611459667,4092,1464,-5312,4,A
1781611459688,4880,-3712,-14284,4,A
1781611459710,1188,-5256,-20320,4,A
1781611459731,-312,-1428,-15428,4,A
1781611459752,-1760,1944,-9976,4,A
1781611459774,-4344,7524,2996,4,A
1781611459796,-14400,32767,28516,4,A
1781611459818,-24852,32767,32767,4,A
1781611459839,-932,32767,23064,4,A
1781611459861,-912,20828,15036,4,A
1781611459882,2080,11068,5072,4,A
1781611459904,268,4120,-9772,4,A
1781611459926,-1420,-580,-17984,4,A
1781611459947,1224,-4696,-18900,4,A
1781611459969,1124,-1928,-17092,4,A
1781611459991,1996,1280,-12832,4,A
1781611460012,1544,3800,-2980,4,A
1781611460034,-3344,17176,20036,4,A
1781611460056,-16600,32767,32767,4,A
1781611460078,-14180,32767,27880,4,A
1781611460099,-5092,31288,19644,4,A
1781611460120,-2104,13868,8892,4,A
1781611460142,708,908,-6488,4,A
1781611460163,984,-5148,-19420,4,A
1781611460186,3312,-7204,-21708,4,A
1781611460206,5332,-8804,-21132,4,A
1781611460229,2516,-544,-7376,4,A
1781611460251,-5168,12860,9764,4,A
1781611460272,-17708,32767,32767,4,A
1781611460293,-24212,32767,32767,4,A
1781611460315,-6624,29952,17720,4,A
1781611460336,-1288,8920,5716,4,A
1781611460358,4720,-4576,-5580,4,A
1781611460379,5244,-7064,-18968,4,A
1781611460401,5704,-10632,-24728,4,A
1781611460423,5492,-10304,-23080,4,A
1781611460444,240,-4384,-10532,4,A
1781611460465,-7044,9496,8152,4,A
1781611460488,-24520,32767,32767,4,A
1781611460509,-26104,32767,32767,4,A
1781611460531,-7668,32767,21540,4,A
1781611460553,-2856,16576,11480,4,A
1781611460574,-716,7136,1504,4,A
1781611460596,2556,972,-7296,4,A
1781611460619,5388,-6332,-15744,4,A
1781611460639,7704,-9448,-19144,4,A
1781611460662,5212,-4824,-15552,4,A
1781611460683,-544,3204,-3984,4,A
1781611460705,-16336,29400,17088,4,A
1781611460727,-31772,32767,32767,4,A
1781611460748,-20600,32767,28208,4,A
1781611460769,-7740,21688,14388,4,A
1781611460791,-1248,7544,3152,4,A
1781611460813,4892,-3988,-6884,4,A
1781611460834,9380,-9124,-19264,4,A
1781611460856,9480,-14108,-28068,4,A
1781611460878,7344,-11368,-22580,4,A
1781611460899,-56,-2244,-6496,4,A
1781611460921,-12440,21692,16408,4,A
1781611460943,-25556,32767,29876,4,A
1781611460965,-20796,32767,32767,4,A
1781611460986,-12436,32767,23896,4,A
1781611461007,-5140,15672,9024,4,A
1781611461029,2736,3452,-756,4,A
1781611461050,6104,-4924,-12396,4,A
1781611461072,7472,-10204,-22976,4,A
1781611461094,7532,-14520,-25884,4,A
1781611461115,3344,-9340,-14140,4,A
1781611461136,-10220,18052,9544,4,A
1781611461158,-26532,32767,28300,4,A
1781611461181,-19644,32767,32676,4,A
1781611461202,-8128,32767,22172,4,A
1781611461223,-324,15164,9820,4,A
1781611461245,2132,3688,2356,4,A
1781611461266,4884,-4668,-8792,4,A
1781611461288,5440,-9204,-18584,4,A
1781611461310,5484,-13088,-23580,4,A
1781611461332,4032,-9008,-18796,4,A
1781611461353,-856,-816,-4176,4,A
1781611461375,-16308,32767,19532,4,A
1781611461396,-27008,32767,30716,4,A
1781611461417,-18164,32767,27032,4,A
1781611461439,-6176,29600,16648,4,A
1781611461461,-1164,10420,6512,4,A
1781611461483,4412,936,-3232,4,A
1781611461504,6356,-2976,-10960,4,A
1781611461526,7420,-9412,-17968,4,A
1781611461548,7584,-11648,-19404,4,A
1781611461569,3976,-7596,-12288,4,A
1781611461591,-4712,6516,700,4,A
1781611461613,-18276,32767,14624,4,A
1781611461634,-27652,32767,20832,4,A
1781611461655,-21388,32767,18748,4,A
1781611461677,-11848,32767,13524,4,A
1781611461698,-4372,15892,7400,4,A
1781611461720,-332,5172,-2656,4,A
1781611461742,1092,160,-10312,4,A
1781611461763,5304,-5884,-15408,4,A
1781611461785,5924,-7032,-17700,4,A
1781611461806,3828,-3540,-13888,4,A
1781611461827,1080,1908,-3848,4,A
1781611461849,-10408,20472,14444,4,A
1781611461871,-29808,32767,29296,4,A
1781611461893,-22244,32767,23176,4,A
1781611461915,-8520,30800,16968,4,A
1781611461936,-1468,14596,9696,4,A
1781611461957,2748,2416,-1852,4,A
1781611461979,4224,-2056,-11800,4,A
1781611462001,4864,-5676,-20904,4,A
1781611462023,4760,-5468,-20088,4,A
1781611462044,1748,-1544,-11080,4,A
1781611462065,-2520,6192,2132,4,A
1781611462087,-17552,32767,27168,4,A
1781611462109,-27224,32767,32767,4,A
1781611462131,-10480,32767,26772,4,A
1781611462153,-1796,20592,16300,4,A
1781611462173,852,7072,5580,4,A
1781611462195,4216,-828,-7656,4,A
1781611462217,4948,-4752,-19148,4,A
1781611462238,4020,-6284,-21440,4,A
1781611462259,804,-1884,-18856,4,A
1781611462282,-2032,2052,-13376,4,A
1781611462303,-1772,4512,-7800,4,A
1781611462325,-8668,18788,15852,4,A
1781611462346,-18536,32767,32767,4,A
1781611462368,-16188,32767,29580,4,A
1781611462389,-3656,31600,19156,4,A
1781611462410,820,12940,9808,4,A
1781611462433,3212,1960,-2112,4,A
1781611462454,5340,-5108,-17000,4,A
1781611462477,4512,-9508,-27744,4,A
1781611462498,4888,-9812,-21696,4,A
1781611462519,-1232,448,-8436,4,A
1781611462541,-7392,13584,9500,4,A
1781611462563,-16376,32767,32767,4,A
1781611462585,-15792,32767,31444,4,A
1781611462606,1412,27796,19012,4,A
1781611462628,3320,11808,7816,4,A
1781611462649,4872,-1536,-6288,4,A
1781611462670,548,-4672,-20916,4,A
1781611462692,2516,-7388,-21844,4,A
1781611462714,1980,-6560,-17444,4,A
1781611462736,-1932,1608,-10276,4,A
1781611462757,-3716,5780,-996,4,A
1781611462779,-11364,32767,25072,4,A
1781611462800,-18840,32767,31428,4,A
1781611462822,-8108,32767,22628,4,A
1781611462843,20,22884,13896,4,A
1781611462865,1044,11308,5616,4,A
1781611462886,4108,1592,-3464,4,A
1781611462909,4196,-2972,-14824,4,A
1781611462929,3124,-5536,-21804,4,A
1781611462952,172,-2960,-20444,4,A
1781611462973,-372,-548,-16008,4,A
1781611462995,436,-1712,-10400,4,A
1781611463017,-4704,12680,15284,4,A
1781611463038,-21172,32767,32767,4,A
1781611463059,-17964,32767,30080,4,A
1781611463081,532,25456,17556,4,A
1781611463103,2444,11224,8460,4,A
1781611463124,4000,1048,-3688,4,A
1781611463146,2680,-3936,-17824,4,A
1781611463168,3640,-7776,-22224,4,A
1781611463189,980,-3996,-19524,4,A
1781611463211,-760,-1700,-12436,4,A
1781611463232,-2496,4156,-1292,4,A
1781611463254,-14952,32767,22532,4,A
1781611463276,-17844,32767,31524,4,A
1781611463297,-6296,32767,28316,4,A
1781611463319,276,24804,13696,4,A
1781611463340,2332,9440,1352,4,A
1781611463362,4500,-1656,-9296,4,A
1781611463383,4516,-5436,-16608,4,A
1781611463405,5376,-9736,-21344,4,A
1781611463427,1852,-6436,-17556,4,A
1781611463448,-2396,336,-10888,4,A
1781611463471,-4420,5332,-428,4,A
1781611463492,-11740,32767,29224,4,A
1781611463513,-32572,32767,9396,4,A
1781611463535,-8980,32767,21928,4,A
1781611463557,-1968,23008,13148,4,A
1781611463578,2136,6748,3140,4,A
1781611463599,2848,-476,-9832,4,A
1781611463622,1708,-2252,-17316,4,A
1781611463643,2036,-3528,-17436,4,A
1781611463665,-580,-804,-15316,4,A
1781611463687,-2000,3216,-10768,4,A
1781611463708,-1176,3668,-2532,4,A
1781611463729,-6312,25784,22148,4,A
1781611463751,-17588,32767,31584,4,A
1781611463773,-10024,32767,21636,4,A
1781611463794,-1180,25104,12860,4,A
1781611463815,-648,13136,5700,4,A
1781611463837,1124,5032,-3092,4,A
1781611463859,760,-884,-14744,4,A
1781611463881,1332,-5116,-21624,4,A
1781611463902,2460,-3952,-16740,4,A
1781611463924,876,844,-9644,4,A
1781611463946,-1880,4632,-3668,4,A
1781611463966,-5716,16464,12216,4,A
1781611463988,-15020,32767,30796,4,A
1781611464011,-18988,32767,23732,4,A
1781611464032,-5076,31580,16588,4,A
1781611464054,-252,14640,6324,4,A
1781611464074,1432,8036,0,4,A
1781611464096,2164,3904,-6644,4,A
1781611464118,2964,-1808,-15396,4,A
1781611464139,4052,-3592,-16860,4,A
1781611464161,1776,-1940,-14276,4,A
1781611464183,-1300,3672,-8964,4,A
1781611464204,-3192,4336,1060,4,A
1781611464226,-11616,32767,25528,4,A
1781611464247,-19004,32767,27376,4,A
1781611464269,-7700,32767,21012,4,A
1781611464291,-1860,24200,12556,4,A
1781611464311,-516,12264,4464,4,A
1781611464333,1812,4760,-3016,4,A
1781611464355,3224,-1252,-12108,4,A
1781611464377,4152,-4556,-16276,4,A
1781611464399,2240,-4184,-17648,4,A
1781611464419,224,-1304,-12032,4,A
1781611464441,-2508,4172,-996,4,A
1781611464464,-11384,30920,21396,4,A
1781611464486,-19796,32767,27976,4,A
1781611464508,-14568,32767,20044,4,A
1781611464529,-2252,24520,13372,4,A
1781611464549,1612,12476,5704,4,A
1781611464572,2076,5528,-3328,4,A
1781611464593,1932,1888,-10192,4,A
1781611464615,2724,-1676,-15772,4,A
1781611464637,2936,-3208,-17480,4,A
1781611464657,1008,-84,-13648,4,A
1781611464679,-48,2600,-5216,4,A
1781611464702,-3976,11332,11100,4,A
1781611464723,-13116,32767,31496,4,A
1781611464745,-19812,32767,23444,4,A
1781611464767,-4992,32767,19424,4,A
1781611464788,1204,16028,10032,4,A
1781611464809,1640,6860,-1224,4,A
1781611464831,1912,3408,-9784,4,A
1781611464852,1632,172,-15492,4,A
1781611464874,1480,-2616,-19576,4,A
1781611464896,-204,-708,-17344,4,A
1781611464917,-1216,1944,-8116,4,A
1781611464938,-3664,8512,5876,4,A
1781611464961,-13976,32767,25728,4,A
1781611464983,-18460,32767,26832,4,A
1781611465003,-5212,32767,22740,4,A
1781611465025,2536,18608,12944,4,A
1781611465046,3396,7568,1220,4,A
1781611465068,508,3608,-9292,4,A
1781611465090,104,240,-17472,4,A
1781611465111,-28,204,-18236,4,A
1781611465133,-728,-288,-17108,4,A
1781611465155,172,-1756,-12872,4,A
1781611465176,-848,2268,832,4,A
1781611465198,-6364,27536,28300,4,A
1781611465220,-32768,32767,12224,4,A
1781611465241,-9436,32767,29544,4,A
1781611465262,-4976,24880,13452,4,A
1781611465284,-1456,9760,2984,4,A
1781611465306,-4164,5980,-9104,4,A
1781611465328,-5748,6212,-16768,4,A
1781611465349,-804,1472,-17108,4,A
1781611465370,900,568,-16400,4,A
1781611465392,1308,1212,-14200,4,A
1781611465414,936,3072,-10444,4,A
1781611465435,1144,3772,1984,4,A
1781611465457,-2276,24992,25204,4,A
1781611465479,-10148,32767,32767,4,A
1781611465501,-9740,32767,24160,4,A
1781611465522,-1880,27984,14504,4,A
1781611465544,72,12236,4664,4,A
1781611465565,1200,4608,-6632,4,A
1781611465587,-1568,2208,-15308,4,A
1781611465609,-992,680,-17196,4,A
1781611465630,-1196,1440,-15828,4,A
1781611465651,416,220,-14808,4,A
1781611465673,1220,476,-9200,4,A
1781611465694,940,3292,4328,4,A
1781611465716,-7684,32767,28480,4,A
1781611465738,-16560,32767,23136,4,A
1781611465760,-5548,32767,18764,4,A
1781611465781,-264,22684,11900,4,A
1781611465803,656,11376,2832,4,A
1781611465824,1096,5300,-5884,4,A
1781611465846,-388,2480,-12188,4,A
1781611465868,528,-248,-15160,4,A
1781611465889,200,-428,-15300,4,A
1781611465911,-184,-536,-13972,4,A
1781611465933,-848,-1020,-9976,4,A
1781611465954,-4324,11280,9680,4,A
1781611465976,-12904,32767,25424,4,A
1781611465997,-16652,32767,13664,4,A
1781611466019,-2592,32767,17168,4,A
1781611466041,-40,21952,12008,4,A
1781611466063,1644,13076,6624,4,A
1781611466084,2508,6272,-372,4,A
1781611466105,208,996,-10432,4,A
1781611466126,-584,364,-15244,4,A
1781611466149,-2592,3584,-15848,4,A
1781611466170,-996,3048,-14060,4,A
1781611466191,388,2728,-10412,4,A
1781611466212,-468,3908,-908,4,A
1781611466235,-5396,29064,20724,4,A
1781611466256,-9484,32767,27404,4,A
1781611466277,-6084,32767,22896,4,A
1781611466299,-2456,32767,16272,4,A
1781611466322,-1480,18660,7184,4,A
1781611466344,1056,3448,-6684,4,A
1781611466366,-724,2480,-13284,4,A
1781611466387,748,-768,-17172,4,A
1781611466408,1028,-176,-16340,4,A
1781611466430,716,-224,-14500,4,A
1781611466452,952,1160,-2924,4,A
1781611466475,-2136,19628,19548,4,A
1781611466495,-11688,32767,28976,4,A
1781611466518,-12124,32767,16664,4,A
1781611466539,-544,24264,13360,4,A
1781611466561,848,14344,4912,4,A
1781611466582,1860,6732,-3232,4,A
1781611466603,1652,540,-10588,4,A
1781611466625,620,1160,-13968,4,A
1781611466646,-2092,2320,-14108,4,A
1781611466669,-2840,2988,-13440,4,A
1781611466690,-2116,1544,-9696,4,A
1781611466712,-1144,5480,2672,4,A
1781611466733,-7156,32767,23288,4,A
1781611466756,-13372,32767,24412,4,A
1781611466777,-5128,32767,19232,4,A
1781611466798,60,24732,11404,4,A
1781611466820,116,14104,5048,4,A
1781611466841,2788,5232,-2480,4,A
1781611466862,2268,-872,-12312,4,A
1781611466885,1756,-2884,-18708,4,A
1781611466906,896,-3832,-20188,4,A
1781611466927,1116,-1180,-14384,4,A
1781611466949,-2324,4564,-2724,4,A
1781611466971,-9264,25576,17908,4,A
1781611466993,-18360,32767,30428,4,A
1781611467015,-12020,32767,16832,4,A
1781611467036,968,20296,10936,4,A
1781611467056,5324,8632,2672,4,A
1781611467079,4852,3648,-7288,4,A
1781611467101,2324,1212,-13176,4,A
1781611467122,812,424,-14976,4,A
1781611467144,-688,620,-14936,4,A
1781611467165,-1948,3808,-10532,4,A
1781611467186,-3800,6636,-148,4,A
1781611467208,-9332,32767,22080,4,A
1781611467229,-29532,32476,0,4,A
1781611467252,-7380,32767,16364,4,A
1781611467273,-1672,19116,7468,4,A
1781611467295,1368,12536,1372,4,A
1781611467316,1576,5192,-7980,4,A
1781611467337,68,4532,-13000,4,A
1781611467359,956,3028,-12856,4,A
1781611467381,372,2896,-12804,4,A
1781611467402,1412,2484,-10232,4,A
1781611467424,416,3512,-3076,4,A
1781611467446,-4600,12736,12760,4,A
1781611467468,-29828,32767,26892,4,A
1781611467490,-13652,32767,13620,4,A
1781611467511,-7516,28300,9556,4,A
1781611467533,-1180,15316,6084,4,A
1781611467554,-384,11228,-1464,4,A
1781611467576,680,7272,-8356,4,A
1781611467597,2700,3052,-10236,4,A
1781611467619,4508,924,-11032,4,A
1781611467641,1868,3080,-10760,4,A
1781611467662,224,4456,-10120,4,A
1781611467684,20,2640,-5996,4,A
1781611467705,-3288,10056,4244,4,A
1781611467726,-15980,32767,18328,4,A
1781611467749,-25188,32767,13288,4,A
1781611467770,-11228,32767,12196,4,A
1781611467792,-2024,22652,8836,4,A
1781611467814,1800,12512,2868,4,A
1781611467835,3588,6036,-5364,4,A
1781611467856,2524,5256,-9324,4,A
1781611467878,1876,2724,-11380,4,A
1781611467899,-204,3176,-13344,4,A
1781611467922,-412,3756,-12552,4,A
1781611467943,-524,3252,-8252,4,A
1781611467964,-1968,6640,1208,4,A
1781611467986,-14264,29660,14960,4,A
1781611468008,-26380,32767,14732,4,A
1781611468029,-10116,32767,16692,4,A
1781611468050,-3036,26076,14348,4,A
1781611468072,88,15512,7460,4,A
1781611468093,1564,6540,-4484,4,A
1781611468116,1000,4656,-9612,4,A
1781611468137,2192,3472,-11788,4,A
1781611468159,3152,368,-15788,4,A
1781611468180,2992,1128,-14564,4,A
1781611468202,2224,3284,-8592,4,A
1781611468223,-952,6540,2856,4,A
1781611468245,-16688,32767,25028,4,A
1781611468267,-31316,32767,18884,4,A
1781611468289,-9984,32767,19316,4,A
1781611468310,-2372,21060,13576,4,A
1781611468331,-1900,13604,6824,4,A
1781611468353,3304,3844,-5380,4,A
1781611468375,4916,-1788,-19076,4,A
1781611468396,7632,-1992,-17256,4,A
1781611468418,6608,-2096,-16376,4,A
1781611468439,2912,324,-13096,4,A
1781611468462,-1496,5468,-7048,4,A
1781611468482,-6404,11064,4188,4,A
1781611468505,-12912,32767,28892,4,A
1781611468527,-20276,32767,29920,4,A
1781611468547,-5780,32767,20056,4,A
1781611468570,488,20056,11612,4,A
1781611468591,2252,11252,4916,4,A
1781611468612,1652,6632,-5240,4,A
1781611468634,1472,1712,-14900,4,A
1781611468655,1228,192,-16524,4,A
1781611468677,328,1064,-14244,4,A
1781611468699,808,768,-12196,4,A
1781611468721,872,-484,-7052,4,A
1781611468741,-5348,11964,10376,4,A
1781611468764,-18808,32767,27824,4,A
1781611468785,-23692,32767,8460,4,A
1781611468807,-3472,30784,17704,4,A
1781611468828,-3752,22528,11364,4,A
1781611468850,-624,13388,4300,4,A
1781611468872,3648,5960,-5760,4,A
1781611468893,3224,-456,-16736,4,A
1781611468915,3156,-1636,-17528,4,A
1781611468936,-424,3596,-15396,4,A
1781611468958,-56,3444,-13036,4,A
1781611468979,1768,744,-9388,4,A
1781611469001,252,5852,6412,4,A
1781611469023,-17008,32767,24108,4,A
1781611469045,-27108,32767,20712,4,A
1781611469066,-9656,32767,16824,4,A
1781611469087,-1592,22396,12992,4,A
1781611469109,184,13504,5348,4,A
1781611469131,2944,5008,-1864,4,A
1781611469152,1508,2588,-8836,4,A
1781611469174,1468,-2892,-19276,4,A
1781611469196,1196,-2804,-18944,4,A
1781611469217,64,1392,-12208,4,A
1781611469239,320,1332,-7856,4,A
1781611469259,-3360,4528,-3152,4,A
1781611469282,-17736,29064,13712,4,A
1781611469303,-28688,32767,21172,4,A
1781611469325,-10148,32767,19500,4,A
1781611469347,-748,24136,13420,4,A
1781611469368,1740,16624,8828,4,A
1781611469389,1876,10108,2264,4,A
1781611469412,1740,6164,-4836,4,A
1781611469433,764,844,-15540,4,A
1781611469455,-240,-940,-20308,4,A
1781611469476,-40,660,-17876,4,A
1781611469498,2000,912,-11312,4,A
1781611469519,112,2908,-4956,4,A
1781611469542,-9468,14288,6292,4,A
1781611469563,-22184,32767,23212,4,A
1781611469585,-17340,32767,20032,4,A
1781611469606,-1900,30220,18136,4,A
1781611469627,16,20216,11868,4,A
1781611469649,1328,12028,4820,4,A
1781611469671,160,8436,-2960,4,A
1781611469692,-472,2992,-12688,4,A
1781611469714,-900,-660,-22580,4,A
1781611469735,184,412,-19168,4,A
1781611469757,2508,2020,-12200,4,A
1781611469779,2408,1352,-7844,4,A
1781611469800,-1660,5012,2664,4,A
1781611469822,-11556,32767,26756,4,A
1781611469843,-22476,32767,26244,4,A
1781611469864,-5772,32767,18596,4,A
1781611469887,-2136,22560,10796,4,A
1781611469909,-108,13260,5052,4,A
1781611469929,1680,6368,-3448,4,A
1781611469951,164,1456,-14504,4,A
1781611469974,-1708,-612,-22240,4,A
1781611469994,-2132,2492,-17332,4,A
1781611470016,-136,1544,-13608,4,A
1781611470038,1084,136,-9632,4,A
1781611470059,1820,-2492,-2184,4,A
1781611470080,-6456,16772,18452,4,A
1781611470103,-32768,12076,3140,4,A
1781611470124,14876,10580,10696,4,A
1781611470147,-7640,32767,25440,4,A
1781611470167,-6952,27140,11432,4,A
1781611470189,116,9332,-2416,4,A
1781611470211,-1904,6856,-10108,4,A
1781611470232,-1404,4604,-15044,4,A
1781611470253,968,2740,-15112,4,A
1781611470275,2048,1084,-15616,4,A
1781611470297,372,2840,-13664,4,A
1781611470318,-92,3488,-9828,4,A
1781611470340,76,4716,1640,4,A
1781611470362,-6808,26192,20184,4,A
1781611470384,-14380,32767,32767,4,A
1781611470405,-10408,32767,23576,4,A
1781611470427,-1948,26124,13964,4,A
1781611470448,1320,12576,6036,4,A
1781611470470,2804,3364,-5364,4,A
1781611470492,904,1224,-14016,4,A
1781611470513,644,-468,-17840,4,A
1781611470535,-1264,1684,-16004,4,A
1781611470557,-620,1892,-12044,4,A
1781611470578,-1236,752,-10244,4,A
1781611470599,-416,3820,1112,4,A
1781611470622,-6456,32767,19736,4,A
1781611470643,-27356,21188,-4908,4,A
1781611470665,9188,19984,13984,4,A
1781611470687,-5520,32716,15932,4,A
1781611470707,-364,13780,2496,4,A
1781611470729,-1444,13384,-1228,4,A
1781611470751,-960,5388,-10200,4,A
1781611470772,-764,6252,-10380,4,A
1781611470794,-552,5704,-12448,4,A
1781611470816,1120,4028,-11928,4,A
1781611470837,860,5268,-9500,4,A
1781611470859,-532,4428,-5216,4,A
1781611470881,-6408,22316,12220,4,A
1781611470902,-16292,32767,26928,4,A
1781611470924,-7668,32767,14116,4,A
1781611470946,-2540,26004,10232,4,A
1781611470967,460,16268,5652,4,A
1781611470988,2164,8908,-196,4,A
1781611471009,1192,7088,-7116,4,A
1781611471032,944,2660,-11904,4,A
1781611471053,-1156,4268,-12140,4,A
1781611471075,-248,3420,-11560,4,A
1781611471097,1224,2828,-8088,4,A
1781611471118,1364,3880,-2416,4,A
1781611471140,-6060,20388,10224,4,A
1781611471162,-22592,24624,18696,4,A
1781611471183,4692,7616,-196,4,A
1781611471205,-11124,32767,15056,4,A
1781611471226,-1480,15536,4096,4,A
1781611471248,-1000,13732,-336,4,A
1781611471269,820,6820,-5392,4,A
1781611471291,836,3348,-10660,4,A
1781611471313,616,3724,-10888,4,A
1781611471334,-112,4660,-11520,4,A
1781611471355,2080,2388,-9616,4,A
1781611471378,1252,1368,-6356,4,A
1781611471398,-4272,10692,4436,4,A
1781611471420,-1976,32767,16912,4,A
1781611471442,-476,6584,-5924,4,A
1781611471463,-6508,32767,21312,4,A
1781611471485,-4588,21076,7324,4,A
1781611471507,-1512,12648,-1004,4,A
1781611471528,368,9216,-1180,4,A
1781611471550,1144,3036,-9356,4,A
1781611471571,832,3760,-10420,4,A
1781611471593,-312,3404,-11300,4,A
1781611471615,76,3112,-9708,4,A
1781611471636,76,2488,-5844,4,A
1781611471658,-3488,9896,4444,4,A
1781611471679,-26472,27740,24272,4,A
1781611471701,-792,9968,-2052,4,A
1781611471723,-13600,32767,15808,4,A
1781611471744,-5684,18052,2880,4,A
1781611471767,-4024,13160,-2600,4,A
1781611471788,-1192,9792,-2156,4,A
1781611471809,1344,4416,-7296,4,A
1781611471831,1756,3956,-8900,4,A
1781611471852,604,3752,-9992,4,A
1781611471874,268,4884,-9100,4,A
1781611471895,-256,4848,-7448,4,A
1781611471918,-1924,6300,-1308,4,A
1781611471939,-12408,32767,18064,4,A
1781611471961,-14536,12376,-4440,4,A
1781611471982,8720,25588,22476,4,A
1781611472004,-8648,32767,12644,4,A
1781611472025,-3760,14620,-504,4,A
1781611472046,2948,9724,984,4,A
1781611472068,352,7320,-4552,4,A
1781611472091,2344,4644,-6768,4,A
1781611472113,1892,4008,-9240,4,A
1781611472134,1132,4496,-9244,4,A
1781611472156,596,5144,-7172,4,A
1781611472177,-428,5316,-2436,4,A
1781611472198,-4068,16340,8524,4,A
1781611472221,-32768,28236,18852,4,A
1781611472242,5640,6276,-124,4,A
1781611472264,-12320,32767,14684,4,A
1781611472285,-3996,14452,328,4,A
1781611472307,-864,13164,1260,4,A
1781611472329,856,7404,-4692,4,A
1781611472349,748,8288,-4792,4,A
1781611472372,3344,4352,-6544,4,A
1781611472394,1700,4208,-9708,4,A
1781611472415,1088,4376,-9352,4,A
1781611472437,-612,6888,-6684,4,A
1781611472458,-1760,6788,160,4,A
1781611472480,-8740,28164,13260,4,A
1781611472502,-29492,27188,268,4,A
1781611472523,4652,32767,19080,4,A
1781611472545,-4368,27340,11116,4,A
1781611472566,-2136,16692,1504,4,A
1781611472588,2664,7476,-804,4,A
1781611472609,1180,4912,-8828,4,A
1781611472630,1872,3024,-8932,4,A
1781611472653,692,4388,-9952,4,A
1781611472674,36,4300,-9668,4,A
1781611472696,-280,5252,-5972,4,A
1781611472717,-1244,6604,1560,4,A
1781611472739,-9340,32767,32767,4,A
1781611472760,-22396,21464,236,4,A
1781611472782,5232,32767,22496,4,A
1781611472804,-2064,22052,6888,4,A
1781611472825,-2344,17728,848,4,A
1781611472847,1060,9912,-4808,4,A
1781611472868,-1592,9032,-7708,4,A
1781611472890,-500,7632,-7876,4,A
1781611472912,-600,6488,-9724,4,A
1781611472932,604,4780,-9812,4,A
1781611472955,1732,4652,-7144,4,A
1781611472975,92,6388,-636,4,A
1781611472997,-3720,20820,12456,4,A
1781611473020,-24972,31316,15328,4,A
1781611473041,4512,18840,9124,4,A
1781611473063,-6316,32767,13000,4,A
1781611473084,-1524,13536,844,4,A
1781611473106,1712,11276,1424,4,A
1781611473127,1204,6172,-6096,4,A
1781611473149,800,5540,-8288,4,A
1781611473170,408,3280,-10856,4,A
1781611473192,-380,3904,-10888,4,A
1781611473214,1052,2620,-7756,4,A
1781611473235,-776,5672,-840,4,A
1781611473257,-32768,32767,5564,4,A
1781611473278,-1132,9316,-748,4,A
1781611473299,5564,9204,3952,4,A
1781611473322,-13924,32767,14408,4,A
1781611473342,-8624,19400,924,4,A
1781611473364,-3092,14160,-792,4,A
1781611473386,-1712,9240,-5392,4,A
1781611473407,-872,7796,-7080,4,A
1781611473429,-208,6148,-9136,4,A
1781611473451,-432,5896,-10292,4,A
1781611473473,1252,4752,-9296,4,A
1781611473494,2856,3816,-7464,4,A
1781611473516,1036,3456,-1752,4,A
1781611473537,-5048,18760,12168,4,A
1781611473559,-31300,23228,10776,4,A
1781611473580,3612,4628,1592,4,A
1781611473602,-11192,32767,16676,4,A
1781611473624,-2744,12828,1248,4,A
1781611473645,-1260,16160,-104,4,A
1781611473668,-732,6244,-7204,4,A
1781611473688,432,4100,-9708,4,A
1781611473710,396,4344,-9796,4,A
1781611473732,-1512,5964,-9936,4,A
1781611473754,-2204,7276,-8548,4,A
1781611473775,-640,5404,-4896,4,A
1781611473796,-3952,13844,5360,4,A
1781611473818,-32768,32767,5800,4,A
1781611473839,-4200,6084,-5056,4,A
1781611473862,-5476,32767,19380,4,A
1781611473883,-4600,20216,6960,4,A
1781611473905,-4884,19624,2084,4,A
1781611473927,-476,10192,-1412,4,A
1781611473948,-256,7752,-5844,4,A
1781611473969,1368,4912,-8248,4,A
1781611473991,2148,3248,-10460,4,A
1781611474013,540,5380,-10744,4,A
1781611474034,1564,4440,-8984,4,A
1781611474055,2024,2472,-5848,4,A
1781611474077,-364,7476,2348,4,A
1781611474099,-9564,28976,13064,4,A
1781611474120,-32244,30444,16304,4,A
1781611474142,5304,3924,2272,4,A
1781611474164,-6456,32767,15460,4,A
1781611474186,-3844,17112,3436,4,A
1781611474208,-2636,14280,1432,4,A
1781611474229,624,6272,-5960,4,A
1781611474250,1208,4232,-9860,4,A
1781611474272,1540,3364,-10340,4,A
1781611474293,188,4172,-10464,4,A
1781611474315,-872,5492,-8544,4,A
1781611474337,-1260,5048,-3296,4,A
1781611474359,-6012,18224,7352,4,A
1781611474381,-32768,32767,-792,4,A
1781611474401,-3220,3892,-5320,4,A
1781611474423,-3536,32767,20348,4,A
1781611474445,-1980,18444,6992,4,A
1781611474466,-1136,16684,2156,4,A
1781611474489,1992,7040,-3056,4,A
1781611474509,-16,5544,-8004,4,A
1781611474531,1756,4664,-7852,4,A
1781611474553,436,5776,-10000,4,A
1781611474574,-204,5516,-9772,4,A
1781611474596,-500,4796,-5684,4,A
1781611474617,-2276,10704,3884,4,A
1781611474639,-8956,29500,13764,4,A
1781611474661,-12112,32767,14648,4,A
1781611474682,-8412,32767,12824,4,A
1781611474703,-4640,24676,8624,4,A
1781611474726,-3612,17112,2764,4,A
1781611474748,-3624,11540,-3672,4,A
1781611474769,-3044,8772,-6764,4,A
1781611474789,-1136,7236,-7540,4,A
1781611474812,-40,6024,-10072,4,A
1781611474834,1168,3584,-10812,4,A
1781611474855,2120,3504,-7784,4,A
1781611474876,1232,2512,-3680,4,A
1781611474898,-2012,11632,5852,4,A
1781611474919,32767,32767,32767,4,A
1781611474942,-18484,10576,3112,4,A
1781611474963,7516,23336,21896,4,A
1781611474985,-9004,32767,16776,4,A
1781611475006,-8044,21304,2720,4,A
1781611475028,768,8940,-1028,4,A
1781611475050,-1084,7084,-7328,4,A
1781611475071,1836,4496,-8160,4,A
1781611475093,2168,4028,-10912,4,A
1781611475114,3248,2568,-10588,4,A
1781611475136,3072,3900,-7592,4,A
1781611475157,2400,3804,-4884,4,A
1781611475179,820,6808,3004,4,A
1781611475201,-9124,28212,13320,4,A
1781611475223,-31296,32767,29260,4,A
1781611475244,4236,11172,8136,4,A
1781611475265,-9400,32767,10800,4,A
1781611475287,-2208,15416,3196,4,A
1781611475308,-1864,14092,-72,4,A
1781611475330,212,8676,-3552,4,A
1781611475351,668,5412,-7160,4,A
1781611475374,340,4552,-9624,4,A
1781611475395,684,4252,-9692,4,A
1781611475416,704,4512,-7528,4,A
1781611475438,-768,6796,-2332,4,A
1781611475460,-4304,14440,3928,4,A
1781611475482,-30728,32767,12368,4,A
1781611475503,740,6860,1312,4,A
1781611475525,1592,32767,18288,4,A
1781611475546,-6652,25736,7172,4,A
1781611475569,-4668,19892,1580,4,A
1781611475589,464,11760,1500,4,A
1781611475611,-348,10008,-2216,4,A
1781611475633,548,5808,-6596,4,A
1781611475654,540,4684,-10644,4,A
1781611475676,1040,5244,-9432,4,A
1781611475698,1652,4572,-7540,4,A
1781611475719,1256,5220,-6944,4,A
1781611475740,-256,4364,-3184,4,A
1781611475762,-6508,15808,7568,4,A
1781611475785,-25020,11420,26472,4,A
1781611475805,3284,7612,3004,4,A
1781611475827,-4188,32767,12356,4,A
1781611475849,-5508,19696,2772,4,A
1781611475869,-1708,14084,-668,4,A
1781611475892,1324,8620,-2380,4,A
1781611475913,540,5420,-7824,4,A
1781611475935,420,5740,-7748,4,A
1781611475956,-244,6236,-8128,4,A
1781611475978,136,6052,-6688,4,A
1781611476000,-972,8724,-3240,4,A
1781611476022,-3816,12396,2180,4,A
1781611476042,-22944,8904,15892,4,A
1781611476064,2544,5756,3952,4,A
1781611476086,-920,32767,15904,4,A
1781611476107,-8620,26872,6032,4,A
1781611476129,-3692,16404,40,4,A
1781611476151,-512,10484,-876,4,A
1781611476172,-12,7508,-4344,4,A
1781611476194,1196,6628,-6096,4,A
1781611476215,1468,4628,-8572,4,A
1781611476237,1484,4528,-8236,4,A
1781611476258,1464,5248,-5184,4,A
1781611476280,-1964,8532,1144,4,A
1781611476302,-8928,26468,7708,4,A
1781611476323,-14468,14380,5860,4,A
1781611476345,2532,5324,220,4,A
1781611476367,-10220,32767,11332,4,A
1781611476388,-1180,15792,-388,4,A
1781611476410,2068,12496,564,4,A
1781611476431,1708,8068,-2772,4,A
1781611476453,1516,6444,-5892,4,A
1781611476474,2240,4388,-7972,4,A
1781611476496,2164,3832,-7572,4,A
1781611476517,968,5600,-5456,4,A
1781611476539,-1588,7844,-1292,4,A
1781611476561,-32768,32767,2412,4,A
1781611476582,-10828,16360,2176,4,A
1781611476604,4124,7368,1444,4,A
1781611476625,-6600,32767,8388,4,A
1781611476647,-8328,26516,4048,4,A
1781611476669,-1420,11672,-800,4,A
1781611476691,-88,10868,-1548,4,A
1781611476711,-268,8220,-3960,4,A
1781611476734,1024,6932,-6284,4,A
1781611476755,1928,4628,-7044,4,A
1781611476777,3444,4220,-5300,4,A
1781611476798,3268,3112,-4340,4,A
1781611476819,-1192,8000,1184,4,A
1781611476842,-32768,32767,6904,4,A
1781611476863,-19256,16492,7096,4,A
1781611476885,-4716,12816,1064,4,A
1781611476906,-9440,32767,6980,4,A
1781611476928,-6604,18804,2324,4,A
1781611476950,-996,12232,-472,4,A
1781611476971,-624,10180,-2264,4,A
1781611476993,-464,8340,-5332,4,A
1781611477014,356,6608,-6108,4,A
1781611477036,12,6312,-7216,4,A
1781611477058,1288,4840,-7300,4,A
1781611477079,1260,6600,-3772,4,A
1781611477099,-2556,8540,924,4,A
1781611477122,-32768,32767,14148,4,A
1781611477143,-17756,16612,5028,4,A
1781611477166,-2412,10168,5124,4,A
1781611477187,-12248,32767,4328,4,A
1781611477209,-4440,15388,152,4,A
1781611477230,120,10940,-2132,4,A
1781611477252,1176,7716,-3156,4,A
1781611477274,1724,6760,-5352,4,A
1781611477295,4796,5012,-8932,4,A
1781611477317,-2012,6016,-7436,4,A
1781611477338,-4372,6908,-5100,4,A
1781611477360,-2564,8408,-640,4,A
1781611477381,-9564,23360,7996,4,A
1781611477403,-23620,16348,14712,4,A
1781611477424,-4292,32767,-1468,4,A
1781611477447,-4180,32767,11468,4,A
1781611477467,-5736,22076,4720,4,A
1781611477490,-456,15572,2476,4,A
1781611477511,796,11212,496,4,A
1781611477533,60,8440,-4792,4,A
1781611477554,3152,6920,-7440,4,A
1781611477576,-1668,9144,-5628,4,A
1781611477597,-268,6212,-6184,4,A
1781611477619,2576,7156,-4764,4,A
1781611477641,-4184,17776,1856,4,A
1781611477662,-14684,29660,10300,4,A
1781611477684,-16352,32767,10828,4,A
1781611477705,-2212,21696,8556,4,A
1781611477727,2072,23216,7088,4,A
1781611477749,-824,18888,3468,4,A
1781611477770,-9624,6612,-8976,4,A
1781611477792,668,8672,-2196,4,A
1781611477813,1588,7704,-3716,4,A
1781611477835,1120,7504,-5664,4,A
1781611477856,312,6648,-6708,4,A
1781611477877,-228,8252,-4856,4,A
1781611477900,-908,7288,-3280,4,A
1781611477923,-4848,12532,5608,4,A
1781611477944,-13444,15032,17328,4,A
1781611477966,-2452,12516,3160,4,A
1781611477987,-10960,32767,10580,4,A
1781611478009,-3624,17056,3704,4,A
1781611478031,-620,12592,-196,4,A
1781611478052,1936,7476,-2564,4,A
1781611478073,1644,5564,-4888,4,A
1781611478095,604,6028,-5700,4,A
1781611478117,-1412,6212,-8452,4,A
1781611478138,-1204,6816,-6028,4,A
1781611478159,-832,6388,-2312,4,A
1781611478182,-7336,15444,4752,4,A
1781611478203,-14120,26456,17348,4,A
1781611478224,-4704,15196,2056,4,A
1781611478246,-4568,32767,10004,4,A
1781611478268,-5968,20104,3684,4,A
1781611478290,-4348,16864,464,4,A
1781611478311,-1460,10840,-1796,4,A
1781611478333,-160,8408,-4088,4,A
1781611478355,1092,6320,-5388,4,A
1781611478376,180,6936,-6876,4,A
1781611478398,108,6024,-7044,4,A
1781611478419,-48,7220,-4532,4,A
1781611478441,-696,7212,-828,4,A
1781611478462,-6360,18528,7012,4,A
1781611478484,-12532,16656,8432,4,A
1781611478506,-740,12344,5824,4,A
1781611478528,-11392,32767,8948,4,A
1781611478549,-6832,18376,1072,4,A
1781611478571,-1452,13024,136,4,A
1781611478592,696,7960,-2388,4,A
1781611478613,1060,7108,-4412,4,A
1781611478635,1276,4692,-6692,4,A
1781611478656,1644,3664,-8140,4,A
1781611478678,1512,3644,-7676,4,A
1781611478700,984,5028,-3148,4,A
1781611478722,-4748,12900,4420,4,A
1781611478743,-13904,32584,21736,4,A
1781611478765,-2028,12580,608,4,A
1781611478786,-6488,32767,9552,4,A
1781611478808,-5312,17232,1816,4,A
1781611478829,-3648,14716,-448,4,A
1781611478851,1344,7932,-2244,4,A
1781611478872,1300,6412,-5688,4,A
1781611478894,1580,4612,-6724,4,A
1781611478915,952,4128,-8092,4,A
1781611478937,1044,4928,-6084,4,A
1781611478959,-792,8748,-1924,4,A
1781611478981,-2312,32767,19080,4,A
1781611479002,-13788,16056,6884,4,A
1781611479023,4684,6384,5128,4,A
1781611479045,-10668,32767,10792,4,A
1781611479067,-10024,21896,1652,4,A
1781611479088,-3852,13908,552,4,A
1781611479109,-604,9216,-2336,4,A
1781611479131,-164,7620,-4820,4,A
1781611479152,972,5516,-6700,4,A
1781611479175,1788,4048,-8236,4,A
1781611479196,1872,3712,-8004,4,A
1781611479218,2508,5552,-4992,4,A
1781611479238,-432,5592,-400,4,A
1781611479261,-7768,32767,32767,4,A
1781611479282,-14336,16376,5488,4,A
1781611479304,4568,8056,5236,4,A
1781611479326,-16788,32767,6460,4,A
1781611479347,-6912,17676,-36,4,A
1781611479368,-44,10316,-1888,4,A
1781611479390,1540,6180,-4576,4,A
1781611479412,1544,4232,-5968,4,A
1781611479433,2168,3188,-7764,4,A
1781611479455,580,4292,-7564,4,A
1781611479476,-428,6160,-5656,4,A
1781611479499,-1980,5172,-2068,4,A
1781611479520,-5828,32767,24836,4,A
1781611479542,-21332,12568,1720,4,A
1781611479563,6784,2404,580,4,A
1781611479585,-12340,32767,10920,4,A
1781611479607,-7004,19552,2364,4,A
1781611479628,-2576,14484,1232,4,A
1781611479650,-824,10744,-1380,4,A
1781611479671,-392,8880,-3808,4,A
1781611479693,1352,6200,-5684,4,A
1781611479714,964,6028,-7228,4,A
1781611479736,1196,5772,-7600,4,A
1781611479757,1172,6692,-5164,4,A
1781611479779,-1232,7748,-476,4,A
1781611479801,-7176,20912,9348,4,A
1781611479823,-18136,17748,12304,4,A
1781611479844,7920,21812,4156,4,A
1781611479865,-9684,29584,9092,4,A
1781611479887,-2200,12740,1796,4,A
1781611479908,816,11216,-168,4,A
1781611479931,1472,6064,-4924,4,A
1781611479952,1152,5224,-6704,4,A
1781611479973,-184,4724,-8560,4,A
1781611479995,-1168,5620,-8284,4,A
1781611480017,-440,6024,-5824,4,A
1781611480037,-892,6204,-1804,4,A
1781611480059,-30236,32767,-11316,4,A
1781611480081,-18616,18712,7472,4,A
1781611480103,9648,2820,-720,4,A
1781611480125,-7972,32767,13864,4,A
1781611480146,-5940,18132,3504,4,A
1781611480168,-2752,14776,1240,4,A
1781611480190,-484,10528,-1220,4,A
1781611480211,-860,8320,-4872,4,A
1781611480232,864,6500,-6084,4,A
1781611480253,-792,7012,-8124,4,A
1781611480276,608,4344,-8304,4,A
1781611480297,1844,4068,-5400,4,A
1781611480319,-852,6820,1444,4,A
1781611480340,-32768,32512,11304,4,A
1781611480362,-4928,13460,5232,4,A
1781611480384,1320,16292,5012,4,A
1781611480405,-14720,31984,8300,4,A
1781611480427,-4932,12680,-2028,4,A
1781611480449,-1204,11408,376,4,A
1781611480470,-1388,7516,-4960,4,A
1781611480491,-1244,6824,-6860,4,A
1781611480513,20,4788,-7996,4,A
1781611480535,732,3024,-7864,4,A
1781611480556,1428,2460,-7256,4,A
1781611480578,-536,4260,-1116,4,A
1781611480599,-26368,32767,-10552,4,A
1781611480621,-8960,16860,9676,4,A
1781611480642,5972,7120,1356,4,A
1781611480664,-13028,32767,11516,4,A
1781611480686,-10792,22252,4076,4,A
1781611480707,-4060,12172,-1348,4,A
1781611480729,-3084,10908,-2048,4,A
1781611480750,-2524,9272,-4420,4,A
1781611480772,-448,6912,-6136,4,A
1781611480794,-240,6244,-7604,4,A
1781611480815,3120,3188,-6384,4,A
1781611480837,3448,3932,-3396,4,A
1781611480858,-2552,11248,3360,4,A
1781611480880,-25480,4816,7792,4,A
1781611480902,-6076,11696,3524,4,A
1781611480923,-8708,32767,17612,4,A
1781611480945,-13080,19108,-892,4,A
1781611480966,-3528,12216,-16,4,A
1781611480988,-196,8416,-1756,4,A
1781611481009,672,5660,-6208,4,A
1781611481031,1124,5612,-6628,4,A
1781611481052,1220,4200,-7512,4,A
1781611481074,1920,3640,-6780,4,A
1781611481096,380,4908,-4228,4,A
1781611481117,-3308,10116,2408,4,A
1781611481139,-23296,-1644,1852,4,A
1781611481159,3864,8228,1696,4,A
1781611481182,-9024,32767,11632,4,A
1781611481203,-13216,25296,5224,4,A
1781611481225,-3740,13208,1260,4,A
1781611481246,264,10908,772,4,A
1781611481268,-620,7836,-4484,4,A
1781611481289,724,5888,-7500,4,A
1781611481311,936,3280,-9892,4,A
1781611481333,2676,2800,-8544,4,A
1781611481354,932,5616,-5004,4,A
1781611481376,-3684,7212,-740,4,A
1781611481397,940,32767,1992,4,A
1781611481419,-2500,9708,5696,4,A
1781611481440,4972,9032,2208,4,A
1781611481462,-17652,32767,13604,4,A
1781611481484,-8916,17520,1464,4,A
1781611481506,-2564,14396,1272,4,A
1781611481527,-2096,10788,-748,4,A
1781611481548,-900,8336,-5712,4,A
1781611481569,1184,5188,-8560,4,A
1781611481591,2424,4116,-8756,4,A
1781611481613,2992,2988,-8296,4,A
1781611481635,2076,4168,-7112,4,A
1781611481657,-2768,8252,2380,4,A
1781611481678,15932,32767,32767,4,A
1781611481700,-17476,12428,688,4,A
1781611481721,4664,14752,9460,4,A
1781611481743,-11008,26704,7768,4,A
1781611481765,-4960,14084,-736,4,A
1781611481786,-1136,12416,-576,4,A
1781611481808,-1464,8872,-5900,4,A
1781611481829,-1484,8376,-6072,4,A
1781611481851,-1292,6460,-7968,4,A
1781611481872,-772,6152,-8244,4,A
1781611481894,204,6112,-5660,4,A
1781611481916,-1720,7344,-3496,4,A
1781611481938,5716,32767,32767,4,A
1781611481959,-14288,12208,1088,4,A
1781611481980,7972,3308,4728,4,A
1781611482002,-9640,32767,12084,4,A
1781611482024,-8416,19324,1976,4,A
1781611482046,-3036,15556,1444,4,A
1781611482067,-3152,13512,-156,4,A
1781611482088,-4556,11240,-3780,4,A
1781611482111,-1504,7872,-5936,4,A
1781611482132,-24,6216,-7360,4,A
1781611482153,2408,5040,-8244,4,A
1781611482176,3132,4780,-5112,4,A
1781611482197,-1668,5924,-980,4,A
1781611482218,-9444,19248,9784,4,A
1781611482241,-13004,11368,5932,4,A
1781611482261,2176,7844,-216,4,A
1781611482283,-16004,32767,11148,4,A
1781611482304,-6848,15636,-4,4,A
1781611482326,-3340,15660,1172,4,A
1781611482348,-4356,11956,-2580,4,A
1781611482369,-2140,10172,-3888,4,A
1781611482391,140,7532,-6540,4,A
1781611482412,1268,5792,-8132,4,A
1781611482434,2560,5396,-8040,4,A
1781611482456,3316,3636,-6460,4,A
1781611482478,1000,5232,-1884,4,A
1781611482499,-5876,14912,5928,4,A
1781611482521,-32768,24624,5660,4,A
1781611482543,-1584,11504,7080,4,A
1781611482564,3956,13716,6720,4,A
1781611482585,-14468,32767,11056,4,A
1781611482607,-6484,15620,-32,4,A
1781611482628,-2916,14368,2792,4,A
1781611482651,-3120,11100,-3476,4,A
1781611482672,-3204,9812,-4932,4,A
1781611482694,-1156,8352,-6524,4,A
1781611482715,-428,7020,-7732,4,A
1781611482736,1500,5568,-6828,4,A
1781611482759,1256,6340,-4104,4,A
1781611482780,-3256,12052,2112,4,A
1781611482801,-11096,26860,9404,4,A
1781611482824,-12456,16668,10924,4,A
1781611482844,668,13196,3332,4,A
1781611482867,-10440,31576,10740,4,A
1781611482888,-4892,17324,1484,4,A
1781611482909,1048,12224,1232,4,A
1781611482931,824,7616,-3476,4,A
1781611482952,-308,6704,-8064,4,A
1781611482974,-300,6244,-8452,4,A
1781611482996,-392,6720,-7056,4,A
1781611483017,520,5808,-5844,4,A
1781611483038,-1248,7072,-1764,4,A
1781611483061,-9324,17376,8368,4,A
1781611483082,-17180,14028,19836,4,A
1781611483104,-3708,15652,-1968,4,A
1781611483124,-6828,30772,13552,4,A
1781611483147,-4532,18412,4436,4,A
1781611483168,-3480,15488,-48,4,A
1781611483190,356,8940,-2636,4,A
1781611483211,240,7668,-5512,4,A
1781611483233,744,6968,-6060,4,A
1781611483254,-568,6840,-7800,4,A
1781611483275,4,6172,-7520,4,A
1781611483297,800,4864,-5072,4,A
1781611483319,-1444,7816,672,4,A
1781611483341,-13852,30600,12376,4,A
1781611483363,-17996,21732,9796,4,A
1781611483384,-168,9612,-3260,4,A
1781611483406,-5636,32767,14800,4,A
1781611483427,-5208,21244,5844,4,A
1781611483449,-5628,19136,2436,4,A
1781611483471,-2340,12320,320,4,A
1781611483494,-2052,9768,-3584,4,A
1781611483514,-276,7444,-5384,4,A
1781611483535,1416,7356,-5764,4,A
1781611483557,396,7132,-7016,4,A
1781611483579,1408,6248,-6916,4,A
1781611483599,872,5348,-7696,4,A
1781611483622,-960,6672,-4072,4,A
1781611483643,-10552,18316,6720,4,A
1781611483665,-21884,32767,32767,4,A
1781611483688,-11676,17152,5784,4,A
1781611483709,-8364,28384,10204,4,A
1781611483732,-5292,18504,4536,4,A
1781611483753,-4104,16660,2444,4,A
1781611483775,-2344,10640,-1392,4,A
1781611483796,-1776,8912,-5248,4,A
1781611483817,380,6780,-6708,4,A
1781611483839,780,6584,-7668,4,A
1781611483861,1032,6668,-7492,4,A
1781611483882,1140,6908,-6116,4,A
1781611483904,-636,8088,-2436,4,A
1781611483926,-7708,18764,5216,4,A
1781611483948,-14340,30400,9396,4,A
1781611483969,-11468,29828,10952,4,A
1781611483991,-7696,32767,12684,4,A
1781611484012,-6152,25288,7092,4,A
1781611484034,-2776,16256,2744,4,A
1781611484055,-900,11796,-1140,4,A
1781611484076,-68,8480,-4960,4,A
1781611484099,-72,6592,-7224,4,A
1781611484120,152,6380,-7988,4,A
1781611484141,-56,6012,-8276,4,A
1781611484163,1136,5368,-5396,4,A
1781611484184,-1956,10848,580,4,A
1781611484206,-8384,21192,6004,4,A
1781611484227,-10920,32767,19288,4,A
1781611484249,-7488,15616,5768,4,A
1781611484271,-5344,30712,10964,4,A
1781611484292,-2580,16904,3876,4,A
1781611484313,-2372,13940,-100,4,A
1781611484336,-1040,9828,-3428,4,A
1781611484357,-1524,8372,-5384,4,A
1781611484379,-368,6752,-6948,4,A
1781611484399,-908,6284,-7812,4,A
1781611484421,-240,6812,-5104,4,A
1781611484443,-3044,9384,344,4,A
1781611484466,4988,32767,32767,4,A
1781611484487,-10944,15968,8680,4,A
1781611484509,2172,21892,11660,4,A
1781611484531,-7400,25012,9612,4,A
1781611484552,-4360,16312,1468,4,A
1781611484574,-680,11784,-604,4,A
1781611484594,-252,8904,-2640,4,A
1781611484616,880,7376,-5012,4,A
1781611484638,2324,5792,-6124,4,A
1781611484660,1280,5484,-7112,4,A
1781611484681,816,5540,-4920,4,A
1781611484703,-2956,9084,1764,4,A
1781611484725,-10684,32767,32767,4,A
1781611484746,-13500,17628,5612,4,A
1781611484767,-1012,12016,1772,4,A
1781611484789,-10384,26716,6488,4,A
1781611484811,-6200,15760,780,4,A
1781611484833,-2196,12120,-1024,4,A
1781611484854,644,7508,-3228,4,A
1781611484875,592,7640,-4672,4,A
1781611484897,644,6244,-5844,4,A
1781611484918,-400,6140,-5336,4,A
1781611484939,-880,7212,-2540,4,A
1781611484962,-3808,9984,2968,4,A
1781611484983,-21116,24440,22672,4,A
1781611485005,-10048,12088,3204,4,A
1781611485027,-1128,32767,14480,4,A
1781611485048,-7792,20808,5792,4,A
1781611485070,-3900,13680,1228,4,A
1781611485091,-8,9796,736,4,A
1781611485113,80,7348,-4472,4,A
1781611485134,1536,6088,-5400,4,A
1781611485156,1280,5400,-6136,4,A
1781611485177,172,6060,-5176,4,A
1781611485199,-480,7288,-2492,4,A
1781611485221,-5568,11700,3332,4,A
1781611485243,-32768,32767,-92,4,A
1781611485264,-13212,13000,2676,4,A
1781611485286,4656,27688,13724,4,A
1781611485308,-10952,25376,6952,4,A
1781611485329,-6296,14708,-148,4,A
1781611485351,-748,9376,-2468,4,A
1781611485372,384,6964,-4556,4,A
1781611485393,468,7356,-5284,4,A
1781611485414,484,5272,-6876,4,A
1781611485436,112,6412,-5180,4,A
1781611485458,-984,7576,-2796,4,A
1781611485480,-3292,9060,3172,4,A
1781611485502,-27492,13396,22256,4,A
1781611485524,-4072,8932,4776,4,A
1781611485545,-1784,18612,4244,4,A
1781611485566,-13040,32767,9464,4,A
1781611485588,-6240,14916,672,4,A
1781611485610,-1776,10596,-1248,4,A
1781611485631,-1064,9184,-2408,4,A
1781611485653,-1108,8632,-4336,4,A
1781611485674,-800,7048,-6084,4,A
1781611485696,-784,7652,-5628,4,A
1781611485717,-956,7828,-2412,4,A
1781611485739,-4128,12752,3544,4,A
1781611485762,-32768,32767,12376,4,A
1781611485782,-7692,13728,5280,4,A
1781611485804,-260,32767,13972,4,A
1781611485826,-7404,21720,5628,4,A
1781611485847,-3576,14616,60,4,A
1781611485868,748,9636,-988,4,A
1781611485890,-496,8268,-3832,4,A
1781611485912,616,7672,-4316,4,A
1781611485933,-8,7156,-4984,4,A
1781611485954,-1148,7840,-5048,4,A
1781611485977,-1096,8476,-2188,4,A
1781611485997,-228,14996,3760,4,A
1781611486019,-32768,29684,8260,4,A
1781611486041,-9020,14780,1004,4,A
1781611486062,-4460,31868,9856,4,A
1781611486084,-7440,21336,5948,4,A
1781611486106,-6020,16108,856,4,A
1781611486128,-1496,10380,-2076,4,A
1781611486149,460,8488,-2368,4,A
1781611486171,1168,6940,-4688,4,A
1781611486192,920,5456,-6440,4,A
1781611486213,1276,6188,-3932,4,A
1781611486235,52,7312,-268,4,A
1781611486258,-4640,16884,7304,4,A
1781611486279,-18728,24068,19808,4,A
1781611486301,-2612,14804,2964,4,A
1781611486322,-8912,32767,8388,4,A
1781611486344,-6912,18256,3432,4,A
1781611486365,-4012,14092,1364,4,A
1781611486387,-1080,10200,-388,4,A
1781611486408,-1784,9588,-3164,4,A
1781611486430,76,6940,-6000,4,A
1781611486452,1032,6568,-5612,4,A
1781611486473,1668,6500,-3464,4,A
1781611486495,188,9376,-1296,4,A
1781611486517,-4236,16160,6176,4,A
1781611486538,-25984,9944,12964,4,A
1781611486560,-1464,14564,3628,4,A
1781611486582,-10172,32767,10484,4,A
1781611486603,-6584,17544,1972,4,A
1781611486624,-2016,11608,-316,4,A
1781611486646,-92,7704,-2628,4,A
1781611486668,-960,8704,-4760,4,A
1781611486689,680,6376,-5456,4,A
1781611486710,176,5960,-5884,4,A
1781611486732,200,7264,-2904,4,A
1781611486753,-2312,9844,1316,4,A
1781611486776,-32768,32767,12396,4,A
1781611486798,-12400,13660,4884,4,A
1781611486819,1848,8196,4428,4,A
1781611486841,-11052,32767,9440,4,A
1781611486862,-7636,18992,3580,4,A
1781611486884,-5572,16752,3144,4,A
1781611486905,-3276,12828,240,4,A
1781611486927,-2180,9744,-2916,4,A
1781611486949,560,8112,-4000,4,A
1781611486969,216,8020,-5424,4,A
1781611486992,852,7128,-5140,4,A
1781611487013,560,7188,-2684,4,A
1781611487034,-2760,10352,844,4,A
1781611487056,-7104,19820,8456,4,A
1781611487078,-10192,30420,11140,4,A
1781611487099,-9936,29152,8072,4,A
1781611487121,-3876,23228,8780,4,A
1781611487142,-2548,19728,5500,4,A
1781611487164,-2136,15372,2152,4,A
1781611487185,-1132,11016,-500,4,A
1781611487207,-680,8384,-3440,4,A
1781611487229,-360,7620,-4932,4,A
1781611487251,-164,7280,-4976,4,A
1781611487273,-904,7484,-3628,4,A
1781611487294,-4304,11556,1880,4,A
1781611487316,13020,32767,32767,4,A
1781611487338,-18832,17600,3212,4,A
1781611487359,-1560,22920,10572,4,A
1781611487380,-8928,23984,7620,4,A
1781611487402,-3528,15332,2560,4,A
1781611487423,-944,11636,452,4,A
1781611487445,-332,9244,-1860,4,A
1781611487467,-812,9284,-3204,4,A
1781611487489,-292,7956,-4732,4,A
1781611487509,-952,8304,-5064,4,A
1781611487532,-712,8420,-3640,4,A
1781611487553,-852,7052,-1988,4,A
1781611487575,-4588,16000,5888,4,A
1781611487597,-22524,10800,10644,4,A
1781611487618,800,12276,4064,4,A
1781611487640,-3772,32767,13032,4,A
1781611487662,-9500,23660,7336,4,A
1781611487683,-5256,16656,3084,4,A
1781611487704,-3424,12916,1336,4,A
1781611487727,-2564,10564,-3400,4,A
1781611487748,-1592,9304,-4628,4,A
1781611487769,-1348,9392,-5032,4,A
1781611487792,-504,7916,-6136,4,A
1781611487813,1132,6176,-5544,4,A
1781611487834,364,7572,-2776,4,A
1781611487855,360,7400,400,4,A
1781611487878,-4360,15800,9244,4,A
1781611487899,-15040,3540,6828,4,A
1781611487921,2476,9720,3800,4,A
1781611487942,-2572,32767,12912,4,A
1781611487963,-11388,23368,4372,4,A
1781611487986,-5520,14040,1308,4,A
1781611488007,-3064,12024,492,4,A
1781611488028,-2112,10572,-2984,4,A
1781611488049,-1208,8504,-4816,4,A
1781611488071,-928,8176,-5984,4,A
1781611488093,-468,7776,-6500,4,A
1781611488114,1268,5564,-4980,4,A
1781611488136,124,5752,-1708,4,A
1781611488158,-4372,13972,7708,4,A
1781611488179,-10768,32767,13968,4,A
1781611488202,-9564,13156,2252,4,A
1781611488222,4036,26292,13252,4,A
1781611488245,-8144,26660,10664,4,A
1781611488266,-4848,15460,1580,4,A
1781611488288,-2480,10908,-996,4,A
1781611488309,-408,7132,-4224,4,A
1781611488331,-748,8128,-6144,4,A
1781611488352,-240,5896,-7712,4,A
1781611488374,116,5900,-5216,4,A
1781611488396,-548,6004,-1484,4,A
1781611488417,-3864,14096,6380,4,A
1781611488439,-32032,12244,21172,4,A
1781611488461,-5208,10820,1852,4,A
1781611488482,-820,32767,14364,4,A
1781611488504,-9180,21200,5464,4,A
1781611488525,-5692,16636,2048,4,A
1781611488547,-1940,11520,388,4,A
1781611488569,-2736,10456,-1728,4,A
1781611488590,-1544,9920,-3772,4,A
1781611488612,-1168,8704,-5624,4,A
1781611488633,416,6916,-6148,4,A
1781611488655,1272,6108,-4884,4,A
1781611488676,-1100,9248,-1024,4,A
1781611488698,-5472,16380,6936,4,A
1781611488720,-32768,32504,15544,4,A
1781611488742,-7260,14500,4588,4,A
1781611488763,2328,32767,16632,4,A
1781611488785,-5620,22244,8480,4,A
1781611488807,-2240,15004,2200,4,A
1781611488828,-196,9568,-876,4,A
1781611488850,-1296,8932,-3588,4,A
1781611488871,-1288,7644,-6608,4,A
1781611488892,-1644,7372,-7280,4,A
1781611488915,-792,6408,-6540,4,A
1781611488936,-716,6496,-2920,4,A
1781611488958,-2792,13144,4524,4,A
1781611488980,-32768,16280,23684,4,A
1781611489001,-12136,13204,6100,4,A
1781611489023,3936,19092,9244,4,A
1781611489044,-8552,26192,9188,4,A
1781611489066,-4024,15232,1468,4,A
1781611489087,-816,11824,724,4,A
1781611489109,-1328,9120,-3556,4,A
1781611489131,-1852,8248,-6016,4,A
1781611489151,-612,7284,-6496,4,A
1781611489173,-512,6948,-6140,4,A
1781611489195,-184,5296,-5024,4,A
1781611489217,-1192,8332,2488,4,A
1781611489239,-1048,32767,20100,4,A
1781611489260,-10388,12796,5720,4,A
1781611489281,1480,14032,2452,4,A
1781611489303,-11852,30168,8220,4,A
1781611489325,-4288,14712,2044,4,A
1781611489346,-2812,12748,1264,4,A
1781611489368,-1996,10260,-2480,4,A
1781611489389,-2000,9704,-4264,4,A
1781611489411,-732,7984,-5116,4,A
1781611489432,-964,8092,-5796,4,A
1781611489456,720,6060,-4428,4,A
1781611489477,-736,8440,320,4,A
1781611489499,-5608,28884,12388,4,A
1781611489521,-16060,11724,4488,4,A
1781611489543,-1532,12928,5672,4,A
1781611489564,-7024,32767,9476,4,A
1781611489586,-5780,17592,2480,4,A
1781611489608,-1716,10552,-1096,4,A
1781611489629,-784,9520,-2904,4,A
1781611489651,-2052,10604,-2952,4,A
1781611489672,-476,8160,-4112,4,A
1781611489693,-476,7480,-4588,4,A
1781611489715,-1264,8192,-2460,4,A
1781611489737,-5764,14248,3772,4,A
1781611489759,-17300,32767,9536,4,A
1781611489781,-12580,16224,1976,4,A
1781611489802,1852,27744,11848,4,A
1781611489824,-5820,19760,7500,4,A
1781611489845,-4292,17288,2568,4,A
1781611489867,-2164,12456,-1280,4,A
1781611489888,-1020,9752,-2396,4,A
1781611489909,-144,9152,-3232,4,A
1781611489931,1064,7112,-4860,4,A
1781611489953,1160,6476,-5572,4,A
1781611489974,1204,7272,-2208,4,A
1781611489997,-2644,10356,3832,4,A
1781611490018,-32768,17672,1800,4,A
1781611490040,-13440,15204,1008,4,A
1781611490061,1932,8600,4872,4,A
1781611490083,-8488,32767,13836,4,A
1781611490104,-4756,16124,1968,4,A
1781611490126,-852,10480,-624,4,A
1781611490147,-396,10240,-972,4,A
1781611490169,-528,8276,-4600,4,A
1781611490191,304,7060,-5716,4,A
1781611490211,100,7716,-2968,4,A
1781611490234,-3336,11200,1528,4,A
1781611490256,-5704,31024,18980,4,A
1781611490277,-13976,15168,4268,4,A
1781611490298,2776,28868,18452,4,A
1781611490321,-6980,19028,6032,4,A
1781611490342,-1476,13776,1280,4,A
1781611490363,-584,11956,-1356,4,A
1781611490384,60,9112,-3344,4,A
1781611490406,600,6792,-5348,4,A
1781611490428,1592,6160,-4552,4,A
1781611490450,1712,5956,-3016,4,A
1781611490471,-2048,11400,3264,4,A
1781611490493,-32768,29344,2700,4,A
1781611490515,-12244,14964,5232,4,A
1781611490537,4540,23760,9916,4,A
1781611490558,-8644,22972,7464,4,A
1781611490579,-3236,14400,1156,4,A
1781611490602,-1044,11648,856,4,A
1781611490623,-36,9796,-2624,4,A
1781611490644,24,8764,-3832,4,A
1781611490665,44,7424,-5104,4,A
1781611490687,516,6892,-4572,4,A
1781611490709,-1096,9704,-1204,4,A
1781611490731,-5640,13792,2244,4,A
1781611490752,-32768,25976,7644,4,A
1781611490774,-7324,13940,6176,4,A
1781611490795,-1280,20388,6544,4,A
1781611490817,-12684,26020,6116,4,A
1781611490839,-5728,15996,1940,4,A
1781611490861,-2100,11532,-2132,4,A
1781611490882,-344,9736,-2508,4,A
1781611490903,-608,9148,-4068,4,A
1781611490924,360,7448,-4916,4,A
1781611490946,1020,6496,-5028,4,A
1781611490968,304,7308,-3436,4,A
1781611490990,-2596,9992,1256,4,A
1781611491011,-10596,32767,32767,4,A
1781611491033,-16372,17624,7584,4,A
1781611491054,2972,7304,2120,4,A
1781611491076,-7576,32767,13540,4,A
1781611491098,-4964,16556,3548,4,A
1781611491119,-1920,12632,444,4,A
1781611491140,568,9960,-1184,4,A
1781611491162,-224,9372,-3320,4,A
1781611491183,1152,7104,-4676,4,A
1781611491205,112,7040,-5244,4,A
1781611491227,940,5752,-3824,4,A
1781611491248,-1612,7948,1080,4,A
1781611491271,-32768,27372,12520,4,A
1781611491291,-12984,15728,5756,4,A
1781611491313,3092,9352,4308,4,A
1781611491334,-9744,32767,12636,4,A
1781611491357,-6236,16564,3284,4,A
1781611491377,-2928,11908,892,4,A
1781611491400,-1068,11148,-772,4,A
1781611491422,-556,9104,-3792,4,A
1781611491442,656,7380,-4132,4,A
1781611491464,-36,7016,-5584,4,A
1781611491486,628,6380,-3972,4,A
1781611491508,-1004,9000,940,4,A
1781611491529,-32768,32767,-4224,4,A
1781611491551,-17660,12536,8848,4,A
1781611491572,3444,7160,6000,4,A
1781611491594,-7900,32767,13136,4,A
1781611491616,-5632,15720,4472,4,A
1781611491637,-1852,13184,2556,4,A
1781611491659,-1536,12600,-16,4,A
1781611491681,-2868,10804,-2716,4,A
1781611491704,-1536,9060,-3976,4,A
1781611491724,-1980,8868,-5280,4,A
1781611491745,-476,7856,-4644,4,A
1781611491767,164,7804,-2920,4,A
1781611491788,-2232,9168,-800,4,A
1781611491811,-6532,13244,4504,4,A
1781611491832,-15500,9352,6744,4,A
1781611491853,3628,9964,4520,4,A
1781611491875,-6112,29152,6468,4,A
1781611491897,-13208,26984,5836,4,A
1781611491918,-3572,12152,392,4,A
1781611491940,-928,9504,-1156,4,A
1781611491961,-1288,8544,-3456,4,A
1781611491982,-1836,8160,-4980,4,A
1781611492005,-2480,8860,-5124,4,A
1781611492026,-1248,8096,-4104,4,A
1781611492048,-2208,8008,-1676,4,A
1781611492070,-32768,32767,24744,4,A
1781611492091,-11388,18328,4160,4,A
1781611492112,1352,6752,1040,4,A
1781611492135,-10968,32767,12624,4,A
1781611492156,-6648,15864,3760,4,A
1781611492178,-2572,12716,828,4,A
1781611492199,-1128,10584,-1392,4,A
1781611492220,-1852,9000,-3772,4,A
1781611492243,-1448,8032,-4688,4,A
1781611492264,-1536,8140,-5280,4,A
1781611492286,-1384,8636,-3740,4,A
1781611492307,-2588,8448,-1300,4,A
1781611492329,-6868,32767,32767,4,A
1781611492351,-10892,9064,7428,4,A
1781611492372,2648,5968,2324,4,A
1781611492394,-13196,32767,12952,4,A
1781611492416,-6596,16592,4140,4,A
1781611492437,-3264,13920,1948,4,A
1781611492458,-2180,11164,-1084,4,A
1781611492481,-2280,9384,-4284,4,A
1781611492503,-1528,8412,-5032,4,A
1781611492524,-1988,7816,-6180,4,A
1781611492545,-72,6200,-5480,4,A
1781611492566,152,7712,-2636,4,A
1781611492588,-3776,10244,3280,4,A
1781611492610,-7380,15000,27360,4,A
1781611492631,-3584,13316,3576,4,A
1781611492654,-5288,19052,4320,4,A
1781611492675,-13248,30672,8244,4,A
1781611492696,-5472,13412,1060,4,A
1781611492718,-2392,10904,-680,4,A
1781611492740,-1600,8836,-2888,4,A
1781611492761,-2056,7380,-5944,4,A
1781611492783,-2228,6732,-5948,4,A
1781611492804,-796,7072,-4244,4,A
1781611492826,-1376,8484,-1248,4,A
1781611492848,-32768,29580,-3824,4,A
1781611492869,-11144,18140,7428,4,A
1781611492891,-220,11076,2516,4,A
1781611492913,-12728,32767,11784,4,A
1781611492935,-7348,15148,1904,4,A
1781611492956,-2676,11144,-428,4,A
1781611492978,-1440,9580,-2796,4,A
1781611492999,-1932,8052,-4928,4,A
1781611493022,-736,6820,-5372,4,A
1781611493042,-788,6944,-4536,4,A
1781611493064,-916,7024,-2684,4,A
1781611493086,-2780,10496,3652,4,A
1781611493107,-30752,-5376,21100,4,A
1781611493129,-1960,10788,6772,4,A
1781611493151,-5860,19296,5968,4,A
1781611493173,-13916,27264,9520,4,A
1781611493194,-6028,14532,3636,4,A
1781611493215,-3936,14012,1036,4,A
1781611493237,-2076,10620,-1760,4,A
1781611493258,-2056,8352,-4728,4,A
1781611493281,-1708,8892,-4760,4,A
1781611493302,-1652,9548,-5244,4,A
1781611493323,-92,6728,-4548,4,A
1781611493344,-1096,7984,-64,4,A
1781611493367,-5952,16524,8628,4,A
1781611493388,-32768,8316,23712,4,A
1781611493409,40,10620,3440,4,A
1781611493432,-2688,32736,17848,4,A
1781611493454,-3792,18056,8488,4,A
1781611493475,-236,13048,3712,4,A
1781611493496,128,10176,516,4,A
1781611493518,-1928,10296,-1408,4,A
1781611493540,-2384,9912,-3012,4,A
1781611493561,-2924,9696,-4424,4,A
1781611493583,-2092,8704,-4248,4,A
1781611493605,-1912,9984,-1012,4,A
1781611493626,-4820,12480,4152,4,A
1781611493648,-30788,32767,12736,4,A
1781611493668,-6640,11768,4412,4,A
1781611493691,-2244,32767,20096,4,A
1781611493713,-7112,19864,7252,4,A
1781611493734,-1608,12524,1848,4,A
1781611493755,1136,8472,-1016,4,A
1781611493777,-924,9508,-2496,4,A
1781611493798,-316,7780,-4700,4,A
1781611493819,404,6252,-5208,4,A
1781611493841,320,7920,-2508,4,A
1781611493863,-820,8216,-576,4,A
1781611493885,-3936,16032,9284,4,A
1781611493907,-17976,13452,11064,4,A
1781611493929,3292,10428,5312,4,A
1781611493949,-7860,28364,8588,4,A
1781611493972,-11428,24044,7308,4,A
1781611493994,-3116,11208,1428,4,A
1781611494014,-1156,12284,604,4,A
1781611494037,-2768,10508,-1892,4,A
1781611494058,-2012,9516,-3020,4,A
1781611494079,-1276,8428,-3752,4,A
1781611494101,-292,7928,-4120,4,A
1781611494123,-1144,9696,-1056,4,A
1781611494145,-5088,13388,4768,4,A
1781611494167,-21360,13744,23072,4,A
1781611494188,-2052,10864,5004,4,A
1781611494209,-8588,32767,15496,4,A
1781611494231,-9464,19120,5336,4,A
1781611494253,-2244,12852,2296,4,A
1781611494274,-260,10780,604,4,A
1781611494296,-668,9120,-2596,4,A
1781611494317,-28,7644,-4180,4,A
1781611494339,-2056,8680,-4828,4,A
1781611494361,-1980,7804,-4832,4,A
1781611494382,-904,7668,-2952,4,A
1781611494404,-3336,10760,2532,4,A
1781611494425,11296,32767,22100,4,A
1781611494447,-12720,13816,8668,4,A
1781611494469,752,12032,5008,4,A
1781611494493,-16576,32767,11512,4,A
1781611494512,-6544,14096,2492,4,A
1781611494534,-1000,11172,2392,4,A
1781611494555,-592,9796,-600,4,A
1781611494577,-1012,7080,-6036,4,A
1781611494598,504,5004,-8156,4,A
1781611494619,1168,5264,-6068,4,A
1781611494643,-2568,5840,-2516,4,A
1781611494663,-11684,17296,7964,4,A
1781611494685,-32768,11172,6748,4,A
1781611494706,808,9188,-2744,4,A
1781611494728,-8076,32767,14340,4,A
1781611494749,-5880,15292,3048,4,A
1781611494770,-4296,15460,2840,4,A
1781611494793,-2752,12308,636,4,A
1781611494815,-2484,10112,-1832,4,A
1781611494835,-1260,8620,-4368,4,A
1781611494857,-1328,8720,-4724,4,A
1781611494878,-380,7896,-4004,4,A
1781611494901,-3204,10584,-1048,4,A
1781611494922,-8692,14100,2144,4,A
1781611494943,-20244,7224,896,4,A
1781611494965,3316,9056,5668,4,A
1781611494987,-8740,29744,10044,4,A
1781611495008,-11240,21668,6132,4,A
1781611495030,-5796,15328,2228,4,A
1781611495052,-4828,14268,-316,4,A
1781611495073,-2448,9636,-3000,4,A
1781611495094,16,8500,-3372,4,A
1781611495116,40,9064,-3300,4,A
1781611495138,-868,8284,-3992,4,A
1781611495160,-1336,9120,-1828,4,A
1781611495181,-2732,9564,2416,4,A
1781611495205,-32768,31260,10096,4,A
1781611495226,-5172,13428,2816,4,A
1781611495247,-784,17688,6336,4,A
1781611495270,-10916,26852,10384,4,A
1781611495291,-3140,14284,2564,4,A
1781611495312,-1500,12908,2288,4,A
1781611495333,-1672,11080,-920,4,A
1781611495355,-1016,9316,-2768,4,A
1781611495377,-768,8512,-4396,4,A
1781611495398,-200,7548,-5020,4,A
1781611495420,416,6456,-2900,4,A
1781611495442,-2728,9016,1228,4,A
1781611495463,11328,32767,32767,4,A
1781611495485,-14604,16784,8128,4,A
1781611495506,3608,8572,1772,4,A
1781611495528,-12444,32767,11792,4,A
1781611495549,-7232,17816,3472,4,A
1781611495572,-1448,13100,2432,4,A
1781611495593,-464,12540,816,4,A
1781611495614,-1996,10176,-2940,4,A
1781611495636,-840,8996,-3012,4,A
1781611495658,-152,9056,-2576,4,A
1781611495679,1684,7128,-3328,4,A
1781611495701,588,7884,-152,4,A
1781611495723,-5152,12476,4556,4,A
1781611495745,-32768,30544,6652,4,A
1781611495766,-6248,12996,6836,4,A
1781611495788,1652,32767,17824,4,A
1781611495809,-12440,24620,8168,4,A
1781611495831,-4008,14612,2536,4,A
1781611495852,848,9840,232,4,A
1781611495873,480,8080,-3768,4,A
1781611495895,256,6524,-6304,4,A
1781611495916,332,6300,-6764,4,A
1781611495938,1020,5948,-6164,4,A
1781611495960,232,5808,-3512,4,A
1781611495982,-3652,11268,2808,4,A
1781611496005,-9720,22536,8516,4,A
1781611496025,-12188,8392,7500,4,A
1781611496046,7548,7520,3372,4,A
1781611496068,-5812,32767,14160,4,A
1781611496090,-12444,23432,5604,4,A
1781611496111,-4440,13552,1564,4,A
1781611496132,476,10068,-884,4,A
1781611496154,-20,8964,-4468,4,A
1781611496175,-768,8796,-5100,4,A
1781611496198,-2312,8824,-4976,4,A
1781611496219,-752,7464,-5044,4,A
1781611496241,-2156,8692,-2516,4,A
1781611496263,-5316,10604,3512,4,A
1781611496284,-17572,29456,8528,4,A
1781611496305,-5616,12832,5356,4,A
1781611496327,-5096,32767,16168,4,A
1781611496349,-9376,19488,6448,4,A
1781611496371,-4596,14008,140,4,A
1781611496392,-1144,10120,124,4,A
1781611496414,-508,9156,-2804,4,A
1781611496435,-256,8412,-4252,4,A
1781611496457,-416,7512,-5060,4,A
1781611496479,448,6316,-4632,4,A
1781611496500,1436,5872,-1688,4,A
1781611496522,-1392,8520,4056,4,A
1781611496544,-32768,25120,-1948,4,A
1781611496565,-8952,15784,3904,4,A
1781611496587,2192,10712,1776,4,A
1781611496608,-14576,32767,12552,4,A
1781611496629,-9928,17964,4996,4,A
1781611496652,-7024,15984,2908,4,A
1781611496673,-2244,13316,196,4,A
1781611496695,-1916,9556,-2836,4,A
1781611496716,-1656,7900,-5564,4,A
1781611496737,200,8104,-5536,4,A
1781611496759,1980,6684,-4976,4,A
1781611496781,3608,5128,-4660,4,A
1781611496802,2540,5784,-816,4,A
1781611496824,-4444,12000,5752,4,A
1781611496846,-32768,32767,25492,4,A
1781611496867,-7584,9440,5484,4,A
1781611496889,-7256,23400,8528,4,A
1781611496910,-15020,26188,5416,4,A
1781611496932,-8472,15324,-200,4,A
1781611496953,-1844,11388,-1164,4,A
1781611496975,636,7848,-3420,4,A
1781611496996,936,6736,-4744,4,A
1781611497018,976,6852,-4892,4,A
1781611497039,864,6580,-4752,4,A
1781611497062,224,6988,-3288,4,A
1781611497083,-3488,9808,1132,4,A
1781611497105,-11152,32767,20620,4,A
1781611497126,-10512,8104,2792,4,A
1781611497148,3440,10268,8588,4,A
1781611497170,-11372,32767,12860,4,A
1781611497191,-12636,21752,4768,4,A
1781611497212,-4652,12888,1216,4,A
1781611497234,-2336,11540,464,4,A
1781611497256,-1456,8700,-3904,4,A
1781611497277,-1228,7780,-6228,4,A
1781611497299,-120,7532,-6060,4,A
1781611497320,1624,6976,-4704,4,A
1781611497342,-280,8304,-1896,4,A
1781611497364,-4348,10332,3140,4,A
1781611497385,-32768,32767,17760,4,A
1781611497407,-8560,7820,6524,4,A
1781611497428,-552,23520,12464,4,A
1781611497451,-12504,24324,9656,4,A
1781611497472,-6944,14472,1916,4,A
1781611497494,-1904,11440,1068,4,A
1781611497516,-944,8724,-2764,4,A
1781611497536,-1248,8568,-4672,4,A
1781611497559,-944,7256,-5308,4,A
1781611497580,-1492,7968,-5304,4,A
1781611497601,-1508,7744,-3436,4,A
1781611497622,-3232,9688,368,4,A
1781611497644,-8648,18552,8904,4,A
1781611497666,-24292,11292,27172,4,A
1781611497688,-3348,10080,-1428,4,A
1781611497709,-10404,32767,17044,4,A
1781611497731,-4384,16608,7336,4,A
1781611497752,-3508,15524,4364,4,A
1781611497775,-540,10664,940,4,A
1781611497796,-1264,9324,-3080,4,A
1781611497817,284,7692,-5068,4,A
1781611497839,-400,8996,-4568,4,A
1781611497861,-80,8172,-5832,4,A
1781611497882,1252,6688,-3364,4,A
1781611497903,-612,8416,3212,4,A
1781611497925,-6412,17756,9364,4,A
1781611497947,-29632,22868,11444,4,A
1781611497968,-5160,13100,4368,4,A
1781611497990,-1968,32767,16544,4,A
1781611498012,-9956,21664,7972,4,A
1781611498033,-5268,13956,2548,4,A
1781611498055,-1744,9900,-724,4,A
1781611498076,-2020,9960,-2712,4,A
1781611498098,-1840,8288,-4992,4,A
1781611498120,-2052,8324,-5276,4,A
1781611498141,-752,7548,-4392,4,A
1781611498163,-1624,9212,-1980,4,A
1781611498185,-4360,10980,5704,4,A
1781611498206,-22848,23632,29168,4,A
1781611498228,-9124,14140,3224,4,A
1781611498249,-5624,32767,18872,4,A
1781611498271,-6624,17752,6656,4,A
1781611498292,-3608,14340,2764,4,A
1781611498313,-584,9128,-1312,4,A
1781611498335,-924,8920,-3184,4,A
1781611498357,24,7180,-4868,4,A
1781611498378,468,6992,-5124,4,A
1781611498399,-88,6744,-5316,4,A
1781611498422,-2884,7616,-2440,4,A
1781611498443,-6376,13004,5096,4,A
1781611498465,-32768,8960,29144,4,A
1781611498487,-5556,9296,3692,4,A
1781611498508,-3624,32767,16276,4,A
1781611498530,-9696,21636,6988,4,A
1781611498552,-4712,13448,2000,4,A
1781611498573,-3344,13824,3140,4,A
1781611498595,-2488,10592,-1020,4,A
1781611498616,-2016,8984,-3444,4,A
1781611498638,-1436,8572,-4800,4,A
1781611498660,-408,8316,-4916,4,A
1781611498682,812,6460,-3264,4,A
1781611498703,-2372,9080,-200,4,A
1781611498724,-8344,15192,7252,4,A
1781611498746,-14160,11960,8484,4,A
1781611498767,488,7112,2992,4,A
1781611498789,-6312,32767,14884,4,A
1781611498811,-9052,20736,6468,4,A
1781611498833,-6624,15420,2028,4,A
1781611498854,-3008,11552,200,4,A
1781611498875,-2820,9948,-2364,4,A
1781611498897,-3276,9020,-5088,4,A
1781611498919,-2268,8944,-5052,4,A
1781611498939,-936,7464,-5092,4,A
1781611498961,776,7192,-1376,4,A
1781611498983,-1788,12444,7684,4,A
1781611499005,-1628,32767,32767,4,A
1781611499027,-13464,17004,6940,4,A
1781611499048,532,26112,14820,4,A
1781611499069,-14220,23756,4952,4,A
1781611499092,-9040,15392,1336,4,A
1781611499113,-4560,11148,-1228,4,A
1781611499135,-2516,9176,-2800,4,A
1781611499157,-1136,8188,-4908,4,A
1781611499177,196,6036,-6280,4,A
1781611499199,1864,5700,-4428,4,A
1781611499221,1360,6908,-2236,4,A
1781611499243,-2772,9916,3572,4,A
1781611499264,-2028,32767,13460,4,A
1781611499286,-13752,13032,8900,4,A
1781611499307,2084,14864,6068,4,A
1781611499329,-14804,32767,9268,4,A
1781611499351,-10152,17316,1580,4,A
1781611499373,-3144,11580,888,4,A
1781611499393,-1992,11360,-772,4,A
1781611499416,-2636,10320,-2392,4,A
1781611499438,-1020,8468,-4344,4,A
1781611499459,-520,7488,-5160,4,A
1781611499481,800,6756,-3428,4,A
1781611499502,-1656,9636,-656,4,A
1781611499524,-6408,13320,5448,4,A
1781611499546,-18092,19344,31284,4,A
1781611499567,-9536,15816,4520,4,A
1781611499589,-9204,32767,12492,4,A
1781611499610,-9852,18528,3704,4,A
1781611499632,-4144,14132,3128,4,A
1781611499653,-2204,12480,2244,4,A
1781611499675,-3272,11140,-616,4,A
1781611499696,-1276,9392,-3264,4,A
1781611499718,-1344,8480,-4892,4,A
1781611499739,272,7988,-4796,4,A
1781611499761,1088,6432,-4128,4,A
1781611499783,1156,6676,-3104,4,A
1781611499805,-1108,10856,4376,4,A
1781611499826,-7788,20096,14756,4,A
1781611499848,-21880,10588,14896,4,A
1781611499870,-1400,17260,7636,4,A
1781611499891,-16048,29516,6184,4,A
1781611499913,-11548,16900,2444,4,A
1781611499934,-4088,11584,1852,4,A
1781611499956,-1868,11572,-196,4,A
1781611499977,-1948,10176,-3068,4,A
1781611499999,16,7912,-4036,4,A
1781611500020,1692,6840,-4228,4,A
1781611500042,2112,6356,-3352,4,A
1781611500063,856,7172,-660,4,A
1781611500085,-4436,12208,7024,4,A
1781611500107,-32768,32767,18808,4,A
1781611500128,-13340,16088,8960,4,A
1781611500150,-9600,32767,14796,4,A
1781611500171,-12956,18632,2120,4,A
1781611500193,-6168,13008,1000,4,A
1781611500214,-2388,8852,-1752,4,A
1781611500236,-1688,9740,-2844,4,A
1781611500258,380,7784,-4520,4,A
1781611500279,736,6496,-5228,4,A
1781611500300,72,7736,-2884,4,A
1781611500322,-1708,9300,-476,4,A
1781611500344,-5776,15084,7016,4,A
1781611500366,-11280,23880,11516,4,A
1781611500387,-18352,14292,15800,4,A
1781611500409,-5456,18512,7700,4,A
1781611500431,-13032,28320,10916,4,A
1781611500452,-8284,17788,5136,4,A
1781611500474,-2468,11560,2336,4,A
1781611500495,-752,9616,-1320,4,A
1781611500517,-572,8884,-3824,4,A
1781611500538,712,7660,-4596,4,A
1781611500560,1312,6580,-5000,4,A
1781611500581,896,6648,-4460,4,A
1781611500603,-212,5792,-2144,4,A
1781611500625,-5032,12596,6928,4,A
1781611500647,-32768,25400,27992,4,A
1781611500668,-11800,13104,2676,4,A
1781611500689,-4420,22224,6456,4,A
1781611500711,-11492,24056,9724,4,A
1781611500732,-3684,12252,2580,4,A
1781611500754,-2552,12372,2472,4,A
1781611500776,-2064,11548,736,4,A
1781611500798,-1980,10628,-1152,4,A
1781611500819,-916,9032,-2864,4,A
1781611500840,-880,8916,-4140,4,A
1781611500862,716,6968,-3660,4,A
1781611500884,-1328,9920,472,4,A
1781611500905,-5964,12868,6196,4,A
1781611500927,-32768,4360,32416,4,A
1781611500950,-8968,10860,7756,4,A
1781611500972,-2972,32767,17056,4,A
1781611500993,-14128,18712,3352,4,A
1781611501015,-3524,11792,1376,4,A
1781611501036,-888,11544,-840,4,A
1781611501057,-556,9828,-1988,4,A
1781611501078,-164,8448,-4584,4,A
1781611501101,432,7484,-4104,4,A
1781611501122,1880,6320,-3148,4,A
1781611501143,228,7384,-220,4,A
1781611501165,-7464,12456,6996,4,A
1781611501187,-22784,28248,24716,4,A
1781611501208,-8464,12128,5780,4,A
1781611501231,-7028,21056,8372,4,A
1781611501251,-16716,24044,9164,4,A
1781611501274,-7972,14464,2368,4,A
1781611501295,-3084,10688,1712,4,A
1781611501317,-592,9496,-2092,4,A
1781611501338,800,8356,-4604,4,A
1781611501359,780,7380,-4136,4,A
1781611501381,812,6980,-5312,4,A
1781611501403,1264,6072,-3372,4,A
1781611501424,-2348,8380,1916,4,A
1781611501446,-32768,31752,-2696,4,A
1781611501469,-21136,15360,6740,4,A
1781611501489,-68,10384,3956,4,A
1781611501512,-12484,32767,15656,4,A
1781611501533,-13200,17320,3868,4,A
1781611501554,-4060,10272,1008,4,A
1781611501576,-1280,9964,-352,4,A
1781611501597,-736,8932,-1568,4,A
1781611501619,600,7236,-4644,4,A
1781611501641,224,7472,-3996,4,A
1781611501662,-332,7380,-2656,4,A
1781611501683,-3604,9904,532,4,A
1781611501705,-8576,13004,6624,4,A
1781611501727,-26108,11468,17860,4,A
1781611501748,-4572,11860,6936,4,A
1781611501769,-9708,32767,12048,4,A
1781611501792,-13680,19168,4584,4,A
1781611501812,-1040,8808,620,4,A
1781611501835,-744,10324,892,4,A
1781611501856,-960,9360,-2356,4,A
1781611501878,-1424,8756,-3180,4,A
1781611501899,-2204,8892,-3268,4,A
1781611501922,-1952,8584,-2440,4,A
1781611501942,-3200,9532,628,4,A
1781611501964,-6844,15160,7124,4,A
1781611501985,-12816,6716,924,4,A
1781611502008,-688,10284,8816,4,A
1781611502029,-15760,24796,7692,4,A
1781611502051,-14908,20472,5880,4,A
1781611502072,-5224,11256,2152,4,A
1781611502094,-4136,12852,2212,4,A
1781611502115,-2640,9568,-784,4,A
1781611502137,-660,8472,-1212,4,A
1781611502158,-132,7616,-2056,4,A
1781611502180,352,7312,-2560,4,A
1781611502202,-3604,8640,-968,4,A
1781611502224,-9432,11320,2588,4,A
1781611502245,-32768,21868,18576,4,A
1781611502266,-13628,10984,620,4,A
1781611502288,-7980,14568,4220,4,A
1781611502310,-14312,29360,15384,4,A
1781611502331,-7500,14680,4336,4,A
1781611502353,-3356,11724,2200,4,A
1781611502375,-3000,10668,1060,4,A
1781611502396,-1924,9696,-1624,4,A
1781611502418,-1992,8360,-3036,4,A
1781611502439,-1028,7176,-3804,4,A
1781611502461,-1104,7424,-2112,4,A
1781611502483,-3152,8392,1932,4,A
1781611502504,21400,32767,-6736,4,A
1781611502526,-17440,12312,2852,4,A
1781611502547,-1556,6624,4324,4,A
1781611502569,-11416,32767,17656,4,A
1781611502591,-8736,15332,5388,4,A
1781611502612,-5196,13808,4544,4,A
1781611502634,-3920,13720,2680,4,A
1781611502656,-3184,10016,-1220,4,A
1781611502677,-1412,8500,-4240,4,A
1781611502698,-756,8548,-5124,4,A
1781611502719,336,7408,-4880,4,A
1781611502741,476,6908,-3944,4,A
1781611502763,-1284,8420,-1252,4,A
1781611502785,-3772,10916,4636,4,A
1781611502807,5928,32767,14100,4,A
1781611502828,-13008,11644,7932,4,A
1781611502849,1236,16080,8868,4,A
1781611502872,-17472,32368,10204,4,A
1781611502893,-6020,12632,1672,4,A
1781611502914,-1736,10148,964,4,A
1781611502936,-2108,9736,-1816,4,A
1781611502958,-2776,9464,-4660,4,A
1781611502979,-2164,7364,-5168,4,A
1781611503001,-2244,8028,-3880,4,A
1781611503022,-1600,8124,-2284,4,A
1781611503044,-4148,8548,2860,4,A
1781611503065,-32768,24992,20624,4,A
1781611503088,-13312,12672,4804,4,A
1781611503108,-3864,13900,5192,4,A
1781611503130,-14524,32767,14980,4,A
1781611503152,-5960,12992,2904,4,A
1781611503174,-2124,11472,2184,4,A
1781611503194,-1132,11536,616,4,A
1781611503216,-1720,8956,-4580,4,A
1781611503238,-756,6964,-5920,4,A
1781611503260,-888,8400,-4840,4,A
1781611503280,-972,7276,-3776,4,A
1781611503303,-3220,9396,1720,4,A
1781611503324,-15116,32767,32767,4,A
1781611503346,-24360,20748,10416,4,A
1781611503368,5120,13332,3500,4,A
1781611503389,-8140,29652,11884,4,A
1781611503411,-5960,17144,6384,4,A
1781611503432,-3144,13428,2856,4,A
1781611503454,-516,9616,20,4,A
1781611503476,-1604,9184,-2840,4,A
1781611503497,-1780,9176,-3676,4,A
1781611503518,-1168,8968,-3540,4,A
1781611503540,380,7580,-2800,4,A
1781611503562,-2020,9096,1744,4,A
1781611503583,-8336,17788,9732,4,A
1781611503606,-20988,14932,30356,4,A
1781611503627,-7000,13684,724,4,A
1781611503649,-5900,32308,16480,4,A
1781611503670,-7004,19420,8172,4,A
1781611503692,-3444,14412,3544,4,A
1781611503713,-80,10644,760,4,A
1781611503735,-1312,9496,-2000,4,A
1781611503756,-1324,8672,-3824,4,A
1781611503778,-1800,8508,-4736,4,A
1781611503800,-620,7792,-3840,4,A
1781611503821,460,6988,-2280,4,A
1781611503842,-3224,9952,4972,4,A
1781611503864,-32768,30248,19600,4,A
1781611503886,-14472,14556,4248,4,A
1781611503908,-1448,15080,6420,4,A
1781611503929,-10888,29456,12860,4,A
1781611503951,-6360,14688,4660,4,A
1781611503972,-2844,13232,3864,4,A
1781611503994,-2016,11720,764,4,A
1781611504015,-3020,11004,-916,4,A
1781611504037,-2404,10392,-2056,4,A
1781611504058,-1532,10292,-2308,4,A
1781611504079,136,8208,-2296,4,A
1781611504101,-56,9832,160,4,A
1781611504123,-4000,12080,5068,4,A
1781611504145,-32768,32767,18036,4,A
1781611504167,-9212,11448,6524,4,A
1781611504188,-4204,14264,6536,4,A
1781611504209,-11808,24440,11312,4,A
1781611504231,-6988,14344,2464,4,A
1781611504253,-56,11068,1224,4,A
1781611504274,-16,10044,-920,4,A
1781611504296,-1584,8956,-3596,4,A
1781611504318,-1176,8268,-4132,4,A
1781611504339,-1088,8884,-4136,4,A
1781611504359,900,6900,-2824,4,A
1781611504382,-1280,6976,2164,4,A
1781611504404,-32768,32767,28184,4,A
1781611504425,-13880,10700,5432,4,A
1781611504446,2544,11716,7844,4,A
1781611504469,-6816,25252,10604,4,A
1781611504491,-14396,21852,7972,4,A
1781611504511,-8856,13800,2200,4,A
1781611504534,-5044,11988,2148,4,A
1781611504555,-4332,10012,-2044,4,A
1781611504577,-3876,10576,-4008,4,A
1781611504599,-2536,10420,-3264,4,A
1781611504619,-376,8752,-3452,4,A
1781611504643,1468,6680,-2052,4,A
1781611504663,-980,8564,1736,4,A
1781611504685,-6900,13708,9608,4,A
1781611504707,-13776,1640,9188,4,A
1781611504728,4016,8108,10156,4,A
1781611504750,-4284,30636,14684,4,A
1781611504772,-13700,22084,7284,4,A
1781611504793,-5200,12144,2308,4,A
1781611504815,-1968,11020,2160,4,A
1781611504837,-1936,9636,-1880,4,A
1781611504858,-2624,9228,-4400,4,A
1781611504879,-2284,8864,-4108,4,A
1781611504901,-656,7860,-3092,4,A
1781611504922,-1072,8552,-332,4,A
1781611504944,-5472,11584,5448,4,A
1781611504966,-32768,22144,20824,4,A
1781611504988,-7888,11296,6704,4,A
1781611505009,-4488,15272,5008,4,A
1781611505032,-15724,31100,12168,4,A
1781611505053,-9584,15132,4248,4,A
1781611505074,-3540,10964,1068,4,A
1781611505095,-2172,10456,-372,4,A
1781611505117,-2444,9736,-2692,4,A
1781611505139,-1456,8808,-3176,4,A
1781611505161,-336,9080,-3592,4,A
1781611505182,808,7504,-1208,4,A
1781611505204,-1128,8276,3204,4,A
1781611505226,-32768,31064,23588,4,A
1781611505246,-15052,8124,6436,4,A
1781611505268,-1780,7300,6300,4,A
1781611505290,-13236,30644,12336,4,A
1781611505312,-10080,15768,5456,4,A
1781611505333,-4484,12280,2820,4,A
1781611505355,-1456,9552,-872,4,A
1781611505376,-1876,10004,-1988,4,A
1781611505398,-1376,8972,-3100,4,A
1781611505420,-1308,9196,-3296,4,A
1781611505441,-1128,9244,-436,4,A
1781611505464,-3636,10424,5304,4,A
1781611505485,32767,32767,32767,4,A
1781611505506,-13448,9464,7136,4,A
1781611505528,-300,23788,16840,4,A
1781611505550,-10212,18996,9148,4,A
1781611505571,-7272,16212,6092,4,A
1781611505593,-2692,12032,2160,4,A
1781611505615,-1312,10680,392,4,A
1781611505636,-1112,8188,-4296,4,A
1781611505658,-1316,7980,-4696,4,A
1781611505679,-424,8152,-4276,4,A
1781611505701,-740,7856,-2084,4,A
1781611505722,-3512,9476,2396,4,A
1781611505743,-9488,14664,9744,4,A
1781611505766,-14552,2396,3564,4,A
1781611505787,-1856,6168,10224,4,A
1781611505809,-2636,23356,11272,4,A
1781611505831,-11564,22028,9908,4,A
1781611505852,-6856,12608,3364,4,A
1781611505874,-4708,12440,2936,4,A
1781611505895,-3888,11504,-536,4,A
1781611505917,-4336,11044,-2596,4,A
1781611505938,-3384,10396,-2760,4,A
1781611505960,-1852,10120,-2688,4,A
1781611505981,44,8032,-1508,4,A
1781611506003,-680,8804,2540,4,A
1781611506025,-6296,14172,11432,4,A
1781611506047,-11116,4348,7968,4,A
1781611506068,-1656,11636,9340,4,A
1781611506090,-14308,31264,16956,4,A
1781611506110,-8460,16524,6240,4,A
1781611506133,-4716,12100,1964,4,A
1781611506154,-1600,9864,-268,4,A
1781611506176,-1444,9428,-2976,4,A
1781611506198,-1308,8296,-4872,4,A
1781611506219,-496,7560,-5308,4,A
1781611506240,848,6812,-3472,4,A
1781611506262,-156,7880,836,4,A
1781611506284,-4556,10788,7656,4,A
1781611506305,-32768,28140,-2428,4,A
1781611506327,-10020,10316,7952,4,A
1781611506349,-1764,16696,9444,4,A
1781611506371,-15540,28160,9932,4,A
1781611506392,-10828,15328,4144,4,A
1781611506413,-6480,13200,4476,4,A
1781611506435,-4304,13060,2496,4,A
1781611506457,-4152,10724,-1040,4,A
1781611506479,-3356,9860,-2968,4,A
1781611506501,-1572,9444,-3188,4,A
1781611506522,164,9376,-3192,4,A
1781611506543,20,8208,-1540,4,A
1781611506566,-1872,10764,2148,4,A
1781611506587,-7020,15544,9264,4,A
1781611506609,-10928,27656,29468,4,A
1781611506630,-4748,8768,12536,4,A
1781611506653,-13688,32767,15336,4,A
1781611506675,-8312,14828,3896,4,A
1781611506697,-4600,13028,1896,4,A
1781611506718,-720,8952,-912,4,A
1781611506739,-836,9300,-2224,4,A
1781611506761,28,7372,-3964,4,A
1781611506783,1008,6456,-3732,4,A
1781611506805,-1864,8240,-1580,4,A
1781611506826,-4180,9656,3032,4,A
1781611506848,-10176,18696,10284,4,A
1781611506868,-9900,5032,7608,4,A
1781611506890,268,11344,9732,4,A
1781611506912,-7472,31760,14368,4,A
1781611506934,-9808,19048,7960,4,A
1781611506955,-6520,14196,4684,4,A
1781611506977,-6624,14108,3260,4,A
1781611506999,-5692,11428,-612,4,A
1781611507021,-4192,9940,-3400,4,A
1781611507042,-2244,9608,-3584,4,A
1781611507063,732,8052,-3780,4,A
1781611507085,2136,6988,-1748,4,A
1781611507107,-776,8724,1612,4,A
1781611507128,-6728,14520,9976,4,A
1781611507151,-32768,19612,-3352,4,A
1781611507172,-5388,11904,6892,4,A
1781611507193,-12460,32767,15448,4,A
1781611507215,-10008,17328,4800,4,A
1781611507236,-5356,13668,3916,4,A
1781611507258,-3136,10392,1420,4,A
1781611507279,-2048,10188,-1516,4,A
1781611507302,-1976,9084,-3440,4,A
1781611507323,-720,8084,-3788,4,A
1781611507344,464,7572,-1988,4,A
1781611507366,-1376,9552,512,4,A
1781611507388,-4820,12000,6196,4,A
1781611507410,-32768,28508,15968,4,A
1781611507431,-6300,8300,7532,4,A
1781611507453,-1628,24220,14524,4,A
1781611507475,-10372,21584,7944,4,A
1781611507495,-5336,13804,2916,4,A
1781611507518,-672,10084,1980,4,A
1781611507539,-632,10256,12,4,A
1781611507560,-612,8880,-2376,4,A
1781611507582,-848,8712,-2280,4,A
1781611507604,-1200,8660,-1892,4,A
1781611507625,-3044,9420,-188,4,A
1781611507648,-6972,11532,6928,4,A
1781611507668,-10920,2212,9344,4,A
1781611507690,-252,10924,9096,4,A
1781611507712,-7492,32767,15124,4,A
1781611507734,-10212,18536,6952,4,A
1781611507755,-4540,12224,1824,4,A
1781611507777,-2492,11468,1580,4,A
1781611507798,-2748,10520,-1052,4,A
1781611507821,-2796,9060,-2732,4,A
1781611507842,-1624,8844,-3380,4,A
1781611507863,-396,7736,-2160,4,A
1781611507884,-792,8700,616,4,A
1781611507906,-5676,13124,6908,4,A
1781611507928,-16064,8608,21740,4,A
1781611507949,-5808,11356,6624,4,A
1781611507972,-6568,16512,8408,4,A
1781611507993,-13224,28124,10992,4,A
1781611508015,-6428,13492,3796,4,A
1781611508036,-4736,13500,4592,4,A
1781611508057,-3460,11384,-68,4,A
1781611508079,-3236,10240,-3156,4,A
1781611508101,-2400,9892,-2904,4,A
1781611508122,-584,8944,-3312,4,A
1781611508144,1308,7252,-2416,4,A
1781611508165,544,8220,740,4,A
1781611508187,-4324,12588,8252,4,A
1781611508209,-32768,31772,11256,4,A
1781611508229,-8828,9528,7412,4,A
1781611508252,1004,21060,12660,4,A
1781611508274,-11584,24388,10148,4,A
1781611508295,-6572,14336,3372,4,A
1781611508317,-1396,10532,1848,4,A
1781611508338,-900,9580,-1420,4,A
1781611508359,-1760,9316,-4576,4,A
1781611508382,-1732,7860,-5036,4,A
1781611508403,-324,7320,-3844,4,A
1781611508425,-1196,7868,-500,4,A
1781611508447,-6100,13012,7600,4,A
1781611508468,-29784,-7856,28844,4,A
1781611508489,-4440,11704,8732,4,A
1781611508512,-5236,25224,11948,4,A
1781611508533,-10740,24644,10060,4,A
1781611508555,-5088,12544,2904,4,A
1781611508576,-3952,12464,3908,4,A
1781611508599,-3008,10296,-1036,4,A
1781611508619,-2788,9864,-3240,4,A
1781611508641,-1912,9376,-3700,4,A
1781611508663,-248,8572,-3492,4,A
1781611508684,980,7160,-1796,4,A
1781611508706,-944,9112,1884,4,A
1781611508727,-7264,15632,8916,4,A
1781611508750,-22524,12296,15400,4,A
1781611508771,-3600,11876,7380,4,A
1781611508792,-3236,32767,17864,4,A
1781611508814,-9092,19992,6476,4,A
1781611508836,-4468,13284,3424,4,A
1781611508857,-1596,9808,560,4,A
1781611508879,-1960,9264,-2832,4,A
1781611508901,-1932,9304,-4212,4,A
1781611508922,-2024,8720,-3988,4,A
1781611508944,-1356,8036,-2716,4,A
1781611508965,-1956,9228,116,4,A
1781611508986,-4792,12176,7028,4,A
1781611509009,-23084,13736,14972,4,A
1781611509029,-5444,12624,6068,4,A
1781611509052,-1052,27512,13604,4,A
1781611509073,-9200,23316,9600,4,A
1781611509095,-4984,13360,3492,4,A
1781611509117,-2696,10908,2440,4,A
1781611509138,-2148,10248,-1132,4,A
1781611509160,-2172,10156,-3500,4,A
1781611509182,-2544,9524,-3376,4,A
1781611509203,-1788,9732,-2744,4,A
1781611509225,-1128,9544,-484,4,A
1781611509247,-3004,10852,3404,4,A
1781611509268,32767,32767,32767,4,A
1781611509290,-9936,11308,9176,4,A
1781611509311,-1152,14828,8808,4,A
1781611509333,-11468,25336,12624,4,A
1781611509355,-6328,14944,3392,4,A
1781611509376,-2672,11640,1488,4,A
1781611509398,-2324,10736,-136,4,A
1781611509419,-2408,9776,-2560,4,A
1781611509441,-2272,9200,-3052,4,A
1781611509463,-1844,9176,-3416,4,A
1781611509485,-1532,9352,-1024,4,A
1781611509506,-2772,9932,2688,4,A
1781611509528,11764,32767,32767,4,A
1781611509549,-8940,8820,8508,4,A
1781611509571,68,9928,5572,4,A
1781611509593,-13716,31984,14312,4,A
1781611509614,-7616,15784,5024,4,A
1781611509636,-3604,12904,3704,4,A
1781611509658,-2804,12304,1032,4,A
1781611509679,-3048,10460,-1560,4,A
1781611509701,-2232,9712,-3260,4,A
1781611509723,-1296,8756,-4496,4,A
1781611509744,416,8464,-3672,4,A
1781611509765,-1344,9264,-748,4,A
1781611509787,-5484,12108,5744,4,A
1781611509809,-11248,22100,11772,4,A
1781611509830,-10660,3648,12988,4,A
1781611509852,-1120,25180,12564,4,A
1781611509874,-8464,23384,12032,4,A
1781611509894,-6000,16156,4436,4,A
1781611509917,-1132,12224,1860,4,A
1781611509938,-1988,10708,-976,4,A
1781611509961,-1940,9636,-3736,4,A
1781611509982,-1720,8836,-4524,4,A
1781611510003,-1036,8404,-4480,4,A
1781611510024,-812,8996,-1864,4,A
1781611510046,-2272,9660,2932,4,A
1781611510068,-7968,18184,11308,4,A
1781611510090,-25200,18528,1112,4,A
1781611510111,-3100,13264,6936,4,A
1781611510133,-10216,31520,16180,4,A
1781611510154,-7920,17352,5248,4,A
1781611510176,-3312,12732,3564,4,A
1781611510198,-1040,10040,-372,4,A
1781611510219,-2036,9800,-2784,4,A
1781611510240,-2044,9284,-3292,4,A
1781611510263,-1668,8876,-3864,4,A
1781611510284,-780,8232,-2008,4,A
1781611510305,-1976,9104,1964,4,A
1781611510327,-5952,14616,8648,4,A
1781611510349,-18332,18928,17144,4,A
1781611510371,-8972,12160,5720,4,A
1781611510392,-2556,31248,16312,4,A
1781611510414,-10976,19784,7388,4,A
1781611510435,-5660,12844,2976,4,A
1781611510457,-2560,10552,1552,4,A
1781611510479,-1628,10096,-1088,4,A
1781611510501,-1592,9360,-3000,4,A
1781611510522,-868,9056,-3432,4,A
1781611510544,80,8460,-2628,4,A
1781611510565,-860,9784,480,4,A
1781611510587,-2720,11408,5084,4,A
1781611510609,-20688,14724,18448,4,A
1781611510630,-5444,10428,7212,4,A
1781611510652,-1532,23376,10640,4,A
1781611510673,-11148,23332,8816,4,A
1781611510695,-4872,13632,2624,4,A
1781611510717,-2340,10052,1400,4,A
1781611510738,-724,9068,-1628,4,A
1781611510759,-1092,9348,-2788,4,A
1781611510782,-2776,9356,-2388,4,A
1781611510803,-2156,9016,-1956,4,A
1781611510825,-3380,10560,408,4,A
1781611510846,-4248,23100,8980,4,A
1781611510868,-8380,5724,11512,4,A
1781611510889,2212,9512,9736,4,A
1781611510911,-7456,18812,4324,4,A
1781611510933,-13356,29488,14036,4,A
1781611510954,-4716,12032,3660,4,A
1781611510976,-2496,13024,3016,4,A
1781611510998,-2368,10948,48,4,A
1781611511019,-2704,10148,-2728,4,A
1781611511041,-1780,9396,-2876,4,A
1781611511062,-312,10116,-3696,4,A
1781611511083,-180,7828,-1620,4,A
1781611511106,-1232,9892,2228,4,A
1781611511127,-4872,14064,9368,4,A
1781611511148,-7316,3076,13664,4,A
1781611511170,2756,10328,9452,4,A
1781611511192,-8816,32767,14788,4,A
1781611511213,-8732,17232,6016,4,A
1781611511235,-2508,12152,3240,4,A
1781611511257,-832,10180,48,4,A
1781611511278,-1796,9780,-3064,4,A
1781611511299,-2236,9552,-3676,4,A
1781611511322,-2564,9240,-4072,4,A
1781611511343,-1272,8396,-2520,4,A
1781611511364,-2624,9636,1372,4,A
1781611511387,-6728,32767,28748,4,A
1781611511408,-9516,5580,8496,4,A
1781611511429,2020,6852,6412,4,A
1781611511451,-4320,24132,11020,4,A
1781611511473,-10164,23044,10896,4,A
1781611511495,-4924,13700,3744,4,A
1781611511516,-3640,13140,3396,4,A
1781611511538,-2908,10808,-700,4,A
1781611511559,-2504,10272,-2368,4,A
1781611511581,-1632,9896,-2708,4,A
1781611511602,-260,8576,-3468,4,A
1781611511624,-396,8172,-2228,4,A
1781611511645,-1704,9336,1696,4,A
1781611511667,-6364,15936,9592,4,A
1781611511689,-18288,-2420,26900,4,A
1781611511710,-2796,13344,7864,4,A
1781611511732,-7768,32767,14992,4,A
1781611511754,-7216,17548,6028,4,A
1781611511775,-4316,13620,3556,4,A
1781611511797,-2564,11608,1592,4,A
1781611511819,-2972,10624,-1792,4,A
1781611511841,-3124,9960,-2896,4,A
1781611511862,-3144,10016,-3328,4,A
1781611511884,-1608,9000,-2640,4,A
1781611511906,-2072,9872,-720,4,A
1781611511927,-3664,11624,3856,4,A
1781611511948,-32768,32767,25968,4,A
1781611511970,-7248,10312,7896,4,A
1781611511992,-2760,12852,7484,4,A
1781611512013,-14188,32304,13236,4,A
1781611512035,-5700,13804,2788,4,A
1781611512056,-1044,11768,724,4,A
1781611512078,-1472,10564,-904,4,A
1781611512099,-2308,10300,-3260,4,A
1781611512122,-1676,8908,-3508,4,A
1781611512143,-2088,9388,-3064,4,A
1781611512164,-2900,10440,-284,4,A
1781611512187,-4228,12120,4212,4,A
1781611512208,17344,32767,32767,4,A
1781611512229,-6352,10448,9380,4,A
1781611512252,-324,28064,14680,4,A
1781611512273,-7760,20780,8924,4,A
1781611512294,-4576,14924,3808,4,A
1781611512316,-2956,10500,1252,4,A
1781611512337,-2640,11420,-184,4,A
1781611512360,-2288,9672,-2372,4,A
1781611512383,-1772,9408,-3076,4,A
1781611512404,-1500,9764,-2856,4,A
1781611512425,-1712,9876,340,4,A
1781611512447,-3856,12788,5128,4,A
1781611512469,-9872,22560,11788,4,A
1781611512491,-16568,7244,15928,4,A
1781611512512,-4500,29664,14508,4,A
1781611512533,-5980,20972,8960,4,A
1781611512556,-5096,17452,5876,4,A
1781611512577,-2340,12636,2708,4,A
1781611512599,-3092,11708,-320,4,A
1781611512621,-2812,10280,-2236,4,A
1781611512642,-2144,10120,-3128,4,A
1781611512664,-1732,9480,-4200,4,A
1781611512685,-664,9484,-4208,4,A
1781611512707,-2140,10408,396,4,A
1781611512728,-5316,15068,7216,4,A
1781611512751,-10332,22952,12688,4,A
1781611512772,-10392,24976,15364,4,A
1781611512793,-8272,24284,14028,4,A
1781611512815,-6708,20988,9356,4,A
1781611512837,-4260,16748,6276,4,A
1781611512859,-3212,12784,1960,4,A
1781611512879,-2920,11244,-1428,4,A
1781611512902,-2804,10220,-3672,4,A
1781611512923,-2120,9504,-4252,4,A
1781611512945,-1304,8904,-4584,4,A
1781611512966,-1284,9008,-2232,4,A
1781611512988,-1912,10144,656,4,A
1781611513009,-4776,15164,8152,4,A
1781611513031,-7876,32767,25676,4,A
1781611513053,-1476,8288,11676,4,A
1781611513074,-1076,12692,8796,4,A
1781611513096,-13688,30468,12552,4,A
1781611513118,-7248,14884,3928,4,A
1781611513139,-3196,13112,3496,4,A
1781611513161,-2456,12020,704,4,A
1781611513182,-3732,11552,-1248,4,A
1781611513204,-2944,10616,-1484,4,A
1781611513226,-1920,10156,-2476,4,A
1781611513247,-624,9376,-3120,4,A
1781611513268,-680,10164,208,4,A
1781611513290,-2280,10360,3316,4,A
1781611513312,-6848,17324,10288,4,A
1781611513334,-9012,2808,10316,4,A
1781611513356,-972,10032,5444,4,A
1781611513377,-12996,32767,14628,4,A
1781611513398,-6360,16064,6044,4,A
1781611513419,-2576,12272,3880,4,A
1781611513442,-1960,11924,1008,4,A
1781611513463,-2228,11024,-2344,4,A
1781611513485,-2628,10508,-2772,4,A
1781611513508,-1832,10128,-2692,4,A
1781611513528,-16,8868,-2076,4,A
1781611513550,-1312,10156,2060,4,A
1781611513572,-5748,14904,8632,4,A
1781611513593,-13060,25252,14764,4,A
1781611513615,-5096,10332,10352,4,A
1781611513637,-9212,26288,15340,4,A
1781611513658,-4308,15912,7424,4,A
1781611513680,-4048,15624,4872,4,A
1781611513702,-2580,11880,1500,4,A
1781611513723,-2120,11044,-212,4,A
1781611513745,-1692,9964,-2220,4,A
1781611513767,-1516,9328,-2972,4,A
1781611513788,-1300,9220,-3712,4,A
1781611513810,-428,8620,-1408,4,A
1781611513831,-1744,9904,3480,4,A
1781611513852,-7124,16928,9948,4,A
1781611513875,-11852,23440,11536,4,A
1781611513896,-16808,10172,15324,4,A
1781611513917,-3272,16092,8284,4,A
1781611513939,-9952,25664,13200,4,A
1781611513962,-7012,17820,5672,4,A
1781611513982,-3280,12932,3636,4,A
1781611514004,-3260,11872,1244,4,A
1781611514026,-2720,10724,-1516,4,A
1781611514048,-2932,10388,-2452,4,A
1781611514069,-1508,9336,-3000,4,A
1781611514091,-524,8552,-1688,4,A
1781611514112,-980,9552,960,4,A
1781611514133,-3984,12972,6924,4,A
1781611514155,18040,32767,32767,4,A
1781611514177,-4384,11376,10388,4,A
1781611514198,-424,20956,11868,4,A
1781611514221,-9704,24288,11656,4,A
1781611514242,-5376,15648,4524,4,A
1781611514263,-2240,12204,4052,4,A
1781611514285,-2916,12272,932,4,A
1781611514306,-3252,10724,-1920,4,A
1781611514328,-2552,9892,-2712,4,A
1781611514350,-992,9012,-3520,4,A
1781611514372,-36,7872,-2416,4,A
1781611514392,-148,9040,324,4,A
1781611514415,-3304,12716,5520,4,A
1781611514436,-8232,19212,10228,4,A
1781611514458,-20732,4172,24904,4,A
1781611514479,-3184,14024,8040,4,A
1781611514502,-9336,32767,14000,4,A
1781611514522,-8964,18824,5512,4,A
1781611514545,-3060,11468,2256,4,A
1781611514567,-1448,11216,1484,4,A
1781611514588,-2384,11356,-752,4,A
1781611514610,-2360,9444,-3116,4,A
1781611514631,-1400,8416,-4200,4,A
1781611514653,-1368,9404,-1884,4,A
1781611514674,-1664,8812,384,4,A
1781611514696,-4588,13996,9516,4,A
1781611514717,-17460,7540,24936,4,A
1781611514739,-3972,15496,7016,4,A
1781611514761,-10460,32767,13652,4,A
1781611514782,-6056,15404,4720,4,A
1781611514805,-2572,11524,3300,4,A
1781611514826,-3912,12836,2872,4,A
1781611514847,-4624,12004,20,4,A
1781611514868,-4720,10592,-2020,4,A
1781611514891,-3536,10600,-2560,4,A
1781611514912,-1876,10248,-2776,4,A
1781611514934,-1276,10088,292,4,A
1781611514955,-2088,11632,4716,4,A
1781611514977,-9100,22016,13280,4,A
1781611514998,-10520,32767,17544,4,A
1781611515020,-4996,22096,13496,4,A
1781611515042,-5864,22728,12468,4,A
1781611515063,-5028,17032,6264,4,A
1781611515085,-3092,12180,2892,4,A
1781611515106,-1628,10944,-8,4,A
1781611515128,-1740,9840,-2048,4,A
1781611515150,-1160,9144,-3972,4,A
1781611515172,-136,8332,-4140,4,A
1781611515193,140,8764,-1480,4,A
1781611515215,-1944,9860,1656,4,A
1781611515236,-5516,16164,8720,4,A
1781611515257,19584,32767,32767,4,A
1781611515280,-3584,10356,10992,4,A
1781611515301,-444,16508,10808,4,A
1781611515323,-10664,26584,10716,4,A
1781611515344,-5536,14172,3580,4,A
1781611515366,-2508,12304,3956,4,A
1781611515388,-2836,12388,1412,4,A
1781611515409,-4776,12012,-668,4,A
1781611515431,-4976,11084,-1368,4,A
1781611515452,-3516,10580,-2256,4,A
1781611515474,-2152,9132,-1816,4,A
1781611515495,-2292,10300,96,4,A
1781611515517,-4396,12276,2228,4,A
1781611515539,-5960,14556,10524,4,A
1781611515561,-5972,3680,11228,4,A
1781611515583,-2088,12384,6816,4,A
1781611515605,-12280,32767,14220,4,A
1781611515626,-7584,14828,4300,4,A
1781611515647,-2932,12376,2884,4,A
1781611515668,-2284,11808,1012,4,A
1781611515691,-3232,10596,-1896,4,A
1781611515713,-2808,9772,-2592,4,A
1781611515734,-1632,9732,-3056,4,A
1781611515755,-488,8656,-1948,4,A
1781611515777,-1492,10148,1832,4,A
1781611515799,-5784,15360,8876,4,A
1781611515820,-14336,32767,26208,4,A
1781611515841,-4608,11832,10080,4,A
1781611515863,-9036,30792,15256,4,A
1781611515885,-6932,17936,6956,4,A
1781611515907,-3812,14328,4128,4,A
1781611515928,-1444,11684,1904,4,A
1781611515949,-2096,10700,-308,4,A
1781611515972,-2444,10188,-2840,4,A
1781611515993,-1788,9020,-3536,4,A
1781611516015,-32,8868,-4408,4,A
1781611516036,-516,8464,-740,4,A
1781611516058,-4316,12616,6644,4,A
1781611516079,-10548,21492,13112,4,A
1781611516102,-32768,26968,13032,4,A
1781611516123,-2368,21804,12104,4,A
1781611516145,-9720,23564,11400,4,A
1781611516166,-7180,17784,5908,4,A
1781611516187,-2908,11616,2804,4,A
1781611516210,-2448,10864,-1232,4,A
1781611516231,-2236,9784,-2660,4,A
1781611516252,-2180,9820,-3844,4,A
1781611516274,-1100,8668,-5112,4,A
1781611516295,812,8072,-2484,4,A
1781611516317,1648,7696,1348,4,A
1781611516339,-2380,14976,10436,4,A
1781611516361,-11668,26044,17624,4,A
1781611516382,-14412,7476,17872,4,A
1781611516404,-9072,31228,14820,4,A
1781611516425,-4856,18092,6972,4,A
1781611516447,-2780,14748,4756,4,A
1781611516469,-576,9740,-1072,4,A
1781611516490,-896,10564,-2552,4,A
1781611516512,-804,9292,-3736,4,A
1781611516534,-844,8420,-4760,4,A
1781611516555,-2500,8900,-3392,4,A
1781611516577,-4964,11400,2704,4,A
1781611516599,-9916,19088,10704,4,A
1781611516621,-13276,25728,16896,4,A
1781611516642,-13380,26364,16116,4,A
1781611516663,-7984,21536,13160,4,A
1781611516685,-5172,17692,10128,4,A
1781611516706,-4036,14020,4912,4,A
1781611516728,-2816,11412,424,4,A
1781611516749,-1724,9428,-3280,4,A
1781611516771,-1476,9248,-4916,4,A
1781611516792,-544,9036,-5884,4,A
