timestamp,ax,ay,az,label,subject_id
1781598745972,2240,-16176,488,1,A
1781598745972,2212,-16144,524,1,A
1781598745973,2344,-15948,372,1,A
1781598745973,2400,-15876,300,1,A
1781598745974,2392,-16160,380,1,A
1781598745974,2532,-16272,380,1,A
1781598745975,2388,-16132,220,1,A
1781598745976,2536,-16120,100,1,A
1781598745976,2196,-15968,476,1,A
1781598745977,2156,-15956,560,1,A
1781598745978,2204,-16132,460,1,A
1781598745979,2264,-16156,220,1,A
1781598745980,2288,-16160,308,1,A
1781598745980,2108,-16060,436,1,A
1781598745980,2080,-16088,564,1,A
1781598745982,2196,-16012,356,1,A
1781598745983,2252,-16036,264,1,A
1781598745984,2368,-16036,276,1,A
1781598745984,2292,-16024,240,1,A
1781598745985,2292,-16132,100,1,A
1781598745987,2196,-16196,108,1,A
1781598745987,2252,-16008,364,1,A
1781598745988,2348,-16040,300,1,A
1781598745988,2404,-16180,176,1,A
1781598745989,2400,-16148,208,1,A
1781598745989,2276,-16196,424,1,A
1781598745990,2220,-16220,252,1,A
1781598745990,2256,-16328,148,1,A
1781598745991,2324,-16140,264,1,A
1781598745991,2152,-16092,492,1,A
1781598745992,2224,-16108,416,1,A
1781598745992,2396,-16148,224,1,A
1781598745993,2284,-15952,336,1,A
1781598745993,2008,-15860,404,1,A
1781598745994,2300,-16148,288,1,A
1781598745995,2512,-16172,56,1,A
1781598745995,2352,-16044,248,1,A
1781598745996,2200,-16072,376,1,A
1781598745996,2376,-16124,216,1,A
1781598745997,2436,-16168,100,1,A
1781598745997,2292,-16060,208,1,A
1781598745998,2080,-16120,384,1,A
1781598745998,2224,-16184,340,1,A
1781598745999,2144,-16128,324,1,A
1781598745999,2196,-16136,332,1,A
1781598745999,2208,-16020,248,1,A
1781598746000,2280,-16140,240,1,A
1781598746000,2312,-16220,212,1,A
1781598746000,2120,-16068,372,1,A
1781598746002,2204,-15924,352,1,A
1781598746002,2124,-16136,380,1,A
1781598746003,2252,-16172,176,1,A
1781598746004,2428,-16188,160,1,A
1781598746004,2228,-16076,320,1,A
1781598746005,2200,-15860,332,1,A
1781598746005,2120,-16136,440,1,A
1781598746006,2404,-16264,304,1,A
1781598746006,2296,-16100,236,1,A
1781598746007,2064,-16040,328,1,A
1781598746007,2188,-16112,368,1,A
1781598746008,2124,-16056,364,1,A
1781598746010,2320,-16024,424,1,A
1781598746010,2176,-16028,296,1,A
1781598746011,2180,-16152,380,1,A
1781598746011,2264,-16184,332,1,A
1781598746011,2064,-16116,452,1,A
1781598746012,2188,-16100,580,1,A
1781598746012,2276,-16104,260,1,A
1781598746012,2324,-16016,300,1,A
1781598746013,2156,-16168,436,1,A
1781598746013,2168,-16008,356,1,A
1781598746014,1972,-15976,496,1,A
1781598746014,2136,-16312,256,1,A
1781598746015,2524,-16284,16,1,A
1781598746015,2336,-15968,304,1,A
1781598746016,2024,-15944,508,1,A
1781598746016,1964,-16108,568,1,A
1781598746017,2224,-16248,348,1,A
1781598746017,2276,-16264,316,1,A
1781598746018,2112,-16284,368,1,A
1781598746018,2248,-15916,376,1,A
1781598746018,2152,-15904,280,1,A
1781598746019,2136,-16064,420,1,A
1781598746019,2328,-16156,400,1,A
1781598746020,2216,-16088,648,1,A
1781598746020,2180,-16068,372,1,A
1781598746020,2316,-16136,392,1,A
1781598746021,2240,-16088,356,1,A
1781598746021,2244,-16068,436,1,A
1781598746022,2284,-16076,360,1,A
1781598746022,2168,-16076,280,1,A
1781598746022,2088,-16108,404,1,A
1781598746022,2184,-16048,304,1,A
1781598746023,2256,-15996,556,1,A
1781598746023,2132,-16096,528,1,A
1781598746024,2484,-16084,272,1,A
1781598746043,2296,-16156,344,1,A
1781598746064,2176,-16140,560,1,A
1781598746085,2040,-16012,592,1,A
1781598746107,1972,-16060,576,1,A
1781598746129,2408,-15900,184,1,A
1781598746150,2304,-16176,408,1,A
1781598746171,2080,-16092,520,1,A
1781598746193,2228,-16124,484,1,A
1781598746215,2168,-16240,480,1,A
1781598746236,2220,-16148,428,1,A
1781598746257,2276,-16048,448,1,A
1781598746279,2272,-16028,348,1,A
1781598746301,2212,-16104,400,1,A
1781598746323,2176,-16128,412,1,A
1781598746345,2224,-16168,420,1,A
1781598746366,2216,-16120,388,1,A
1781598746387,2092,-16148,584,1,A
1781598746409,2332,-16148,516,1,A
1781598746430,2360,-16164,356,1,A
1781598746452,2144,-16160,360,1,A
1781598746474,1692,-15960,600,1,A
1781598746496,2164,-16156,416,1,A
1781598746518,2300,-16072,348,1,A
1781598746538,2276,-16012,308,1,A
1781598746561,2252,-16116,520,1,A
1781598746582,2096,-16108,696,1,A
1781598746604,2216,-16096,408,1,A
1781598746625,2348,-16100,380,1,A
1781598746647,2220,-16068,508,1,A
1781598746669,2200,-16124,588,1,A
1781598746690,2104,-16100,440,1,A
1781598746712,2076,-16112,432,1,A
1781598746733,2420,-16000,292,1,A
1781598746755,2256,-15988,416,1,A
1781598746776,2228,-16220,476,1,A
1781598746798,2252,-16168,324,1,A
1781598746819,2296,-16032,464,1,A
1781598746841,2236,-15896,636,1,A
1781598746862,1860,-16148,720,1,A
1781598746884,2340,-16396,340,1,A
1781598746905,2548,-16292,332,1,A
1781598746928,2192,-15888,576,1,A
1781598746949,1972,-15816,728,1,A
1781598746971,2268,-15996,612,1,A
1781598746993,2188,-16352,100,1,A
1781598747014,2596,-16296,48,1,A
1781598747035,2452,-15984,396,1,A
1781598747056,2196,-15820,596,1,A
1781598747078,2276,-15956,596,1,A
1781598747100,2084,-16344,468,1,A
1781598747122,1284,-15916,496,1,A
1781598747143,2668,-16812,-144,1,A
1781598747165,2292,-16132,184,1,A
1781598747187,1900,-15996,668,1,A
1781598747208,1944,-15972,616,1,A
1781598747229,2092,-16080,448,1,A
1781598747251,2152,-16224,484,1,A
1781598747273,2120,-16016,464,1,A
1781598747294,2404,-16072,276,1,A
1781598747316,2176,-16036,360,1,A
1781598747337,2020,-15964,484,1,A
1781598747359,2380,-15664,160,1,A
1781598747380,2332,-16064,-32,1,A
1781598747402,2540,-16452,144,1,A
1781598747423,2332,-15904,112,1,A
1781598747445,1792,-15492,340,1,A
1781598747467,2152,-16296,-40,1,A
1781598747488,2600,-16816,-152,1,A
1781598747510,2636,-16196,328,1,A
1781598747532,2004,-15516,1188,1,A
1781598747553,1416,-15752,792,1,A
1781598747575,2924,-16384,-220,1,A
1781598747596,2824,-16660,264,1,A
1781598747618,1932,-16048,1064,1,A
1781598747639,2184,-15816,724,1,A
1781598747661,2432,-16128,176,1,A
1781598747682,2700,-16316,60,1,A
1781598747704,2220,-15924,464,1,A
1781598747726,2172,-15900,600,1,A
1781598747747,2268,-16176,440,1,A
1781598747768,2348,-16284,244,1,A
1781598747790,2340,-16020,220,1,A
1781598747812,2304,-16036,304,1,A
1781598747833,2504,-16180,356,1,A
1781598747855,2440,-16300,548,1,A
1781598747876,2240,-16132,612,1,A
1781598747898,2460,-15992,344,1,A
1781598747919,2264,-15968,532,1,A
1781598747941,2164,-16160,644,1,A
1781598747962,1924,-15920,428,1,A
1781598747984,2480,-16016,300,1,A
1781598748006,2276,-15544,556,1,A
1781598748028,2164,-15044,812,1,A
1781598748049,2064,-15728,1092,1,A
1781598748070,2076,-16232,368,1,A
1781598748092,3200,-17044,-528,1,A
1781598748114,2976,-16560,-340,1,A
1781598748136,1984,-15676,568,1,A
1781598748157,1860,-15892,536,1,A
1781598748178,2156,-16304,420,1,A
1781598748200,2072,-16084,460,1,A
1781598748222,2384,-15968,276,1,A
1781598748243,2576,-16072,176,1,A
1781598748264,2548,-16008,224,1,A
1781598748286,2544,-16088,440,1,A
1781598748308,2316,-16148,600,1,A
1781598748329,2136,-16060,556,1,A
1781598748350,2692,-16144,220,1,A
1781598748372,2620,-16012,392,1,A
1781598748394,2216,-15864,612,1,A
1781598748415,2100,-15924,712,1,A
1781598748436,2464,-16428,256,1,A
1781598748458,2684,-16116,132,1,A
1781598748480,2456,-15984,428,1,A
1781598748502,2008,-15812,828,1,A
1781598748523,1916,-16052,552,1,A
1781598748544,2444,-15968,264,1,A
1781598748567,1996,-15988,760,1,A
1781598748588,2384,-15780,568,1,A
1781598748609,2728,-15616,244,1,A
1781598748631,2908,-16452,60,1,A
1781598748653,2704,-16352,316,1,A
1781598748674,2188,-15800,416,1,A
1781598748696,1816,-15944,708,1,A
1781598748717,2152,-16172,360,1,A
1781598748738,2224,-16196,380,1,A
1781598748760,2412,-15864,256,1,A
1781598748782,2152,-16060,580,1,A
1781598748804,2064,-16016,612,1,A
1781598748825,2284,-15940,412,1,A
1781598748847,2224,-16244,188,1,A
1781598748868,2372,-16400,136,1,A
1781598748890,2260,-16104,408,1,A
1781598748911,2288,-15844,444,1,A
1781598748933,1780,-16032,760,1,A
1781598748954,2032,-16332,592,1,A
1781598748976,2416,-16372,412,1,A
1781598748998,2160,-15892,460,1,A
1781598749019,1984,-15868,648,1,A
1781598749041,1992,-16124,728,1,A
1781598749062,2808,-16316,252,1,A
1781598749084,2752,-16076,380,1,A
1781598749105,2056,-15984,700,1,A
1781598749127,2020,-15900,736,1,A
1781598749149,2348,-16080,568,1,A
1781598749170,2276,-16260,496,1,A
1781598749192,2480,-16148,468,1,A
1781598749213,2460,-16020,384,1,A
1781598749234,2180,-16092,520,1,A
1781598749256,2332,-15996,492,1,A
1781598749278,2284,-16000,660,1,A
1781598749299,1988,-16148,940,1,A
1781598749320,2248,-16220,776,1,A
1781598749342,2420,-16360,448,1,A
1781598749363,2100,-16128,600,1,A
1781598749386,2276,-16196,708,1,A
1781598749407,2440,-15944,416,1,A
1781598749429,2356,-15656,500,1,A
1781598749450,2328,-16048,504,1,A
1781598749471,2520,-16256,560,1,A
1781598749493,2512,-15812,592,1,A
1781598749515,2152,-16052,748,1,A
1781598749536,2232,-16212,492,1,A
1781598749558,2560,-16112,520,1,A
1781598749579,2748,-15860,824,1,A
1781598749601,2248,-15648,1056,1,A
1781598749623,2292,-15588,872,1,A
1781598749644,2592,-16536,596,1,A
1781598749667,2380,-16568,716,1,A
1781598749688,1628,-15916,948,1,A
1781598749709,2144,-15864,320,1,A
1781598749731,2772,-16184,384,1,A
1781598749753,2820,-15884,472,1,A
1781598749774,2280,-15852,700,1,A
1781598749795,2540,-16092,304,1,A
1781598749816,2752,-16420,172,1,A
1781598749838,2636,-15988,628,1,A
1781598749860,2324,-15948,668,1,A
1781598749882,2492,-16168,684,1,A
1781598749903,2672,-16172,636,1,A
1781598749925,2068,-16036,1024,1,A
1781598749946,2100,-15924,1116,1,A
1781598749968,2444,-16116,612,1,A
1781598749989,2840,-15980,584,1,A
1781598750011,2172,-16104,864,1,A
1781598750033,2224,-16264,712,1,A
1781598750054,2628,-16100,360,1,A
1781598750076,2584,-15864,540,1,A
1781598750103,2068,-15748,804,1,A
1781598750118,2372,-16204,312,1,A
1781598750141,2824,-16068,-20,1,A
1781598750162,2832,-15772,-8,1,A
1781598750183,2300,-15760,456,1,A
1781598750205,1980,-16060,532,1,A
1781598750226,2556,-16156,428,1,A
1781598750248,2584,-16120,820,1,A
1781598750269,2424,-16092,836,1,A
1781598750291,2868,-16004,476,1,A
1781598750312,2828,-15864,904,1,A
1781598750334,2452,-15976,1076,1,A
1781598750356,2804,-16516,760,1,A
1781598750377,2864,-16172,468,1,A
1781598750399,2524,-15768,584,1,A
1781598750421,2540,-15792,712,1,A
1781598750442,2800,-15976,492,1,A
1781598750463,3036,-15984,336,1,A
1781598750486,2852,-15852,412,1,A
1781598750506,2544,-15952,528,1,A
1781598750528,2556,-16064,492,1,A
1781598750550,2580,-16176,428,1,A
1781598750570,2536,-16200,592,1,A
1781598750592,2452,-16072,728,1,A
1781598750614,2484,-16064,1028,1,A
1781598750636,2568,-16028,836,1,A
1781598750657,2468,-16168,984,1,A
1781598750679,2728,-16064,756,1,A
1781598750701,2460,-16020,748,1,A
1781598750722,2644,-16048,512,1,A
1781598750744,2528,-16076,584,1,A
1781598750765,2512,-15888,556,1,A
1781598750787,2428,-15872,388,1,A
1781598750808,2612,-15956,108,1,A
1781598750830,2768,-15988,176,1,A
1781598750851,2628,-16072,440,1,A
1781598750873,2628,-16064,452,1,A
1781598750894,2908,-16020,376,1,A
1781598750916,2528,-15988,836,1,A
1781598750937,2284,-16116,764,1,A
1781598750959,2644,-15996,624,1,A
1781598750981,2752,-16128,604,1,A
1781598751002,2676,-16260,788,1,A
1781598751023,2804,-16184,680,1,A
1781598751045,3036,-15952,704,1,A
1781598751067,2616,-16044,1000,1,A
1781598751088,2528,-16028,1076,1,A
1781598751111,2680,-15956,856,1,A
1781598751132,2952,-16148,592,1,A
1781598751153,2540,-15924,692,1,A
1781598751175,2448,-15788,784,1,A
1781598751200,2440,-15812,520,1,A
1781598751218,2736,-16084,380,1,A
1781598751239,2408,-16136,604,1,A
1781598751260,2088,-15916,656,1,A
1781598751283,2352,-16092,412,1,A
1781598751305,2440,-16380,364,1,A
1781598751326,2648,-16168,280,1,A
1781598751348,2400,-15984,828,1,A
1781598751369,2420,-15996,960,1,A
1781598751390,2628,-16172,768,1,A
1781598751412,3040,-16180,644,1,A
1781598751434,2800,-15940,656,1,A
1781598751456,2724,-15728,880,1,A
1781598751477,2760,-15916,608,1,A
1781598751498,2960,-15988,372,1,A
1781598751520,3216,-16028,328,1,A
1781598751541,2752,-15788,644,1,A
1781598751563,2556,-15780,760,1,A
1781598751585,2712,-15968,516,1,A
1781598751606,2908,-16276,272,1,A
1781598751628,2776,-16204,504,1,A
1781598751649,2560,-15916,908,1,A
1781598751670,2308,-15992,1000,1,A
1781598751692,2772,-16228,908,1,A
1781598751714,2648,-16336,912,1,A
1781598751735,2572,-16016,908,1,A
1781598751757,2468,-15912,916,1,A
1781598751779,2472,-15868,728,1,A
1781598751800,2488,-15956,644,1,A
1781598751822,2504,-16044,548,1,A
1781598751843,2276,-16112,468,1,A
1781598751865,2420,-15932,440,1,A
1781598751886,2668,-15976,344,1,A
1781598751908,2640,-16128,492,1,A
1781598751929,2608,-16084,792,1,A
1781598751951,2824,-15924,660,1,A
1781598751973,2768,-16032,684,1,A
1781598751995,2448,-16144,900,1,A
1781598752016,2568,-16012,868,1,A
1781598752038,2780,-16080,832,1,A
1781598752059,2564,-16004,872,1,A
1781598752081,2688,-16020,936,1,A
1781598752102,2984,-15848,576,1,A
1781598752124,2808,-15884,684,1,A
1781598752146,2776,-15984,696,1,A
1781598752167,2800,-15820,512,1,A
1781598752188,2796,-15960,492,1,A
1781598752209,2948,-16164,456,1,A
1781598752230,2660,-16016,552,1,A
1781598752253,2516,-16012,856,1,A
1781598752274,2684,-16256,808,1,A
1781598752296,2788,-16344,856,1,A
1781598752317,2512,-16080,1108,1,A
1781598752339,2232,-15776,1408,1,A
1781598752361,2312,-15788,976,1,A
1781598752383,2592,-16152,604,1,A
1781598752404,2720,-16188,420,1,A
1781598752425,2644,-15892,592,1,A
1781598752447,2340,-15728,584,1,A
1781598752470,2604,-15940,460,1,A
1781598752492,2620,-16052,544,1,A
1781598752513,2824,-16028,588,1,A
1781598752534,2620,-16064,632,1,A
1781598752556,2460,-16112,684,1,A
1781598752578,2568,-16096,816,1,A
1781598752600,2496,-16064,888,1,A
1781598752621,2644,-16080,896,1,A
1781598752642,2712,-16112,904,1,A
1781598752664,2776,-15960,832,1,A
1781598752685,2712,-16004,792,1,A
1781598752707,2672,-15856,712,1,A
1781598752729,2844,-16024,600,1,A
1781598752750,2824,-15888,608,1,A
1781598752772,2656,-15772,668,1,A
1781598752793,3016,-16028,324,1,A
1781598752815,3004,-16128,332,1,A
1781598752837,2748,-15928,756,1,A
1781598752858,2320,-16052,1016,1,A
1781598752880,2772,-16072,844,1,A
1781598752901,2820,-16156,904,1,A
1781598752923,2600,-15984,1144,1,A
1781598752944,2368,-15908,1252,1,A
1781598752966,2340,-15952,1044,1,A
1781598752988,2544,-15948,616,1,A
1781598753009,2556,-16060,548,1,A
1781598753031,2696,-15964,528,1,A
1781598753053,2608,-15812,660,1,A
1781598753074,2764,-16048,476,1,A
1781598753095,2788,-16160,304,1,A
1781598753117,2880,-16016,336,1,A
1781598753139,2720,-15876,776,1,A
1781598753160,2604,-16012,872,1,A
1781598753182,2776,-16216,868,1,A
1781598753203,2668,-16144,1112,1,A
1781598753225,2916,-15932,1024,1,A
1781598753247,2752,-16028,1008,1,A
1781598753268,3036,-15968,796,1,A
1781598753290,3028,-15812,756,1,A
1781598753311,2988,-15768,560,1,A
1781598753333,2964,-15832,580,1,A
1781598753354,2852,-15968,780,1,A
1781598753376,2920,-15856,636,1,A
1781598753397,3024,-15884,520,1,A
1781598753419,2976,-16040,464,1,A
1781598753441,2996,-16100,532,1,A
1781598753462,2700,-16196,904,1,A
1781598753484,2532,-16080,956,1,A
1781598753505,2512,-16056,1128,1,A
1781598753527,2648,-16140,968,1,A
1781598753548,2748,-15920,1072,1,A
1781598753570,2508,-15624,1028,1,A
1781598753591,2660,-16136,728,1,A
1781598753613,2528,-16008,960,1,A
1781598753635,2304,-15836,1048,1,A
1781598753656,2320,-15768,764,1,A
1781598753678,3156,-16376,140,1,A
1781598753699,3308,-15936,-196,1,A
1781598753721,2968,-15516,296,1,A
1781598753743,2480,-16012,868,1,A
1781598753764,2696,-16148,552,1,A
1781598753786,3076,-16080,292,1,A
1781598753808,2920,-16040,652,1,A
1781598753829,3044,-16076,736,1,A
1781598753850,2832,-15948,1036,1,A
1781598753872,2516,-15996,1056,1,A
1781598753894,3120,-16376,696,1,A
1781598753916,2904,-16220,500,1,A
1781598753938,2668,-15680,640,1,A
1781598753958,2432,-15872,708,1,A
1781598753981,2896,-16152,520,1,A
1781598754002,3016,-15968,144,1,A
1781598754024,3004,-16072,436,1,A
1781598754045,2700,-16356,400,1,A
1781598754067,2616,-16344,688,1,A
1781598754089,2728,-15360,1024,1,A
1781598754110,2584,-15276,1524,1,A
1781598754130,2484,-15848,1864,1,A
1781598754153,3356,-16456,760,1,A
1781598754175,2732,-16140,892,1,A
1781598754196,2244,-16012,1072,1,A
1781598754219,1836,-16152,1432,1,A
1781598754240,2164,-16116,604,1,A
1781598754261,3124,-16132,-36,1,A
1781598754282,3012,-16124,400,1,A
1781598754304,2468,-15760,1032,1,A
1781598754326,2248,-15796,952,1,A
1781598754347,3284,-16040,320,1,A
1781598754369,3360,-16240,352,1,A
1781598754391,2928,-15832,704,1,A
1781598754412,2936,-15812,692,1,A
1781598754433,3100,-16012,552,1,A
1781598754455,2996,-15864,684,1,A
1781598754476,2704,-15660,792,1,A
1781598754498,2920,-15988,916,1,A
1781598754520,2712,-15844,976,1,A
1781598754541,3060,-15856,756,1,A
1781598754563,3048,-16348,640,1,A
1781598754584,3284,-16540,228,1,A
1781598754606,3040,-15712,468,1,A
1781598754628,2784,-15640,672,1,A
1781598754649,-200,-15484,2816,1,A
1781598754670,3760,-15892,516,1,A
1781598754692,3148,-15680,728,1,A
1781598754714,2948,-15776,868,1,A
1781598754735,2784,-15896,740,1,A
1781598754756,2920,-16064,692,1,A
1781598754778,2360,-15268,1092,1,A
1781598754800,2124,-15000,1152,1,A
1781598754822,3252,-15384,380,1,A
1781598754843,2876,-16828,340,1,A
1781598754864,3308,-17096,328,1,A
1781598754886,3212,-16152,272,1,A
1781598754908,3448,-15516,156,1,A
1781598754929,3312,-15088,476,1,A
1781598754951,2852,-15664,816,1,A
1781598754973,3284,-16620,464,1,A
1781598754994,3064,-16376,376,1,A
1781598755016,2520,-15852,684,1,A
1781598755037,2720,-15480,752,1,A
1781598755059,2452,-15808,832,1,A
1781598755080,3012,-16264,516,1,A
1781598755102,3296,-16012,760,1,A
1781598755124,2832,-16052,1036,1,A
1781598755146,2696,-16000,1032,1,A
1781598755167,2212,-16020,780,1,A
1781598755188,2996,-15764,392,1,A
1781598755210,3220,-15836,528,1,A
1781598755231,3508,-15740,560,1,A
1781598755253,3204,-15556,420,1,A
1781598755275,3844,-15604,32,1,A
1781598755296,3136,-15956,448,1,A
1781598755317,2828,-15488,656,1,A
1781598755339,3052,-15872,624,1,A
1781598755361,2528,-16416,880,1,A
1781598755382,2352,-16944,556,1,A
1781598755404,2772,-16496,460,1,A
1781598755425,2368,-15820,840,1,A
1781598755447,2340,-15868,976,1,A
1781598755469,2620,-16112,916,1,A
1781598755491,3044,-16120,580,1,A
1781598755512,3080,-15852,396,1,A
1781598755533,2816,-16000,800,1,A
1781598755555,3044,-15708,788,1,A
1781598755576,3040,-15728,672,1,A
1781598755598,3488,-15980,320,1,A
1781598755619,3528,-15708,264,1,A
1781598755640,3384,-15728,452,1,A
1781598755662,2856,-16064,864,1,A
1781598755684,2928,-16300,548,1,A
1781598755706,3100,-15996,588,1,A
1781598755727,2668,-15780,816,1,A
1781598755749,2620,-15896,688,1,A
1781598755770,2632,-16140,620,1,A
1781598755792,3152,-15984,448,1,A
1781598755814,2868,-15872,844,1,A
1781598755835,2836,-15928,832,1,A
1781598755856,2936,-16052,620,1,A
1781598755878,3040,-15840,400,1,A
1781598755900,2920,-15872,644,1,A
1781598755920,2760,-15936,772,1,A
1781598755943,2892,-15968,664,1,A
1781598755965,3344,-16144,424,1,A
1781598755986,3208,-16124,716,1,A
1781598756008,2624,-15928,1028,1,A
1781598756029,2384,-15928,1048,1,A
1781598756050,2672,-16148,560,1,A
1781598756073,2736,-16072,564,1,A
1781598756094,2564,-15892,980,1,A
1781598756115,2308,-15968,1060,1,A
1781598756137,2848,-16276,504,1,A
1781598756159,3276,-16036,288,1,A
1781598756180,2824,-15812,560,1,A
1781598756202,2560,-15896,800,1,A
1781598756223,3032,-15720,516,1,A
1781598756245,3392,-15940,372,1,A
1781598756266,3244,-15972,448,1,A
1781598756288,3384,-15980,408,1,A
1781598756310,2776,-15940,648,1,A
1781598756331,2856,-15688,624,1,A
1781598756352,2928,-15772,576,1,A
1781598756374,2872,-16412,736,1,A
1781598756396,3000,-16000,788,1,A
1781598756417,2964,-15560,888,1,A
1781598756439,2716,-15816,928,1,A
1781598756460,3308,-16424,548,1,A
1781598756482,3360,-16044,668,1,A
1781598756503,3008,-15856,876,1,A
1781598756525,2820,-15640,1012,1,A
1781598756546,2984,-15780,584,1,A
1781598756568,3700,-15952,468,1,A
1781598756589,3308,-16192,792,1,A
1781598756611,3072,-15864,752,1,A
1781598756633,2832,-15600,740,1,A
1781598756654,2544,-15936,912,1,A
1781598756676,2904,-16212,792,1,A
1781598756698,2956,-16024,768,1,A
1781598756719,2932,-16180,620,1,A
1781598756741,3176,-16116,700,1,A
1781598756763,2428,-15692,1228,1,A
1781598756784,1916,-15668,1540,1,A
1781598756806,2936,-15976,588,1,A
1781598756827,3616,-16192,340,1,A
1781598756849,3152,-15972,712,1,A
1781598756870,3032,-15616,1040,1,A
1781598756892,3356,-15828,936,1,A
1781598756913,3256,-15912,444,1,A
1781598756935,4160,-15656,116,1,A
1781598756957,3428,-15520,700,1,A
1781598756979,2984,-15880,1260,1,A
1781598757000,2816,-15832,1068,1,A
1781598757021,3604,-15792,504,1,A
1781598757042,3584,-15928,460,1,A
1781598757065,3216,-15760,816,1,A
1781598757086,3168,-15744,988,1,A
1781598757108,3096,-15844,932,1,A
1781598757129,3472,-16024,560,1,A
1781598757150,3408,-16392,600,1,A
1781598757172,3224,-16012,784,1,A
1781598757194,3056,-15940,992,1,A
1781598757216,3508,-16020,1212,1,A
1781598757238,2620,-15872,1584,1,A
1781598757259,3288,-16080,1128,1,A
1781598757280,3512,-16016,676,1,A
1781598757302,3536,-15732,528,1,A
1781598757324,3184,-15516,1088,1,A
1781598757346,3176,-15840,1016,1,A
1781598757367,2744,-16212,836,1,A
1781598757388,3416,-16100,416,1,A
1781598757410,3368,-15908,440,1,A
1781598757431,2936,-15828,788,1,A
1781598757454,3060,-15864,732,1,A
1781598757474,3324,-15724,584,1,A
1781598757497,3280,-15848,800,1,A
1781598757517,3372,-15904,936,1,A
1781598757539,3252,-15836,1008,1,A
1781598757561,3532,-15964,788,1,A
1781598757582,3396,-15936,940,1,A
1781598757604,4688,-16280,592,1,A
1781598757626,3092,-15896,888,1,A
1781598757647,3476,-16064,896,1,A
1781598757669,3456,-16072,620,1,A
1781598757690,3276,-15832,780,1,A
1781598757712,3072,-15852,952,1,A
1781598757734,3020,-15964,1020,1,A
1781598757755,3276,-15956,808,1,A
1781598757776,3352,-15804,1032,1,A
1781598757799,3364,-15908,984,1,A
1781598757819,3408,-15916,1112,1,A
1781598757841,3376,-15844,1052,1,A
1781598757863,3308,-15824,888,1,A
1781598757884,3244,-15932,880,1,A
1781598757906,3248,-15820,816,1,A
1781598757927,2984,-15680,860,1,A
1781598757950,2924,-15808,764,1,A
1781598757971,3096,-16000,644,1,A
1781598757992,3240,-16000,620,1,A
1781598758014,3044,-15900,888,1,A
1781598758036,3328,-15820,752,1,A
1781598758057,3484,-15984,736,1,A
1781598758079,3264,-15880,864,1,A
1781598758100,3564,-15708,868,1,A
1781598758122,3240,-15796,1180,1,A
1781598758144,3344,-15752,1116,1,A
1781598758165,3356,-15708,948,1,A
1781598758187,3072,-15992,696,1,A
1781598758208,4228,-16292,-24,1,A
1781598758230,4152,-15944,228,1,A
1781598758251,3436,-15692,732,1,A
1781598758273,3256,-15668,936,1,A
1781598758294,3448,-15892,880,1,A
1781598758316,3552,-15968,764,1,A
1781598758337,3564,-15920,624,1,A
1781598758359,3512,-15616,700,1,A
1781598758382,3488,-15632,844,1,A
1781598758403,3392,-15900,928,1,A
1781598758425,3460,-15860,964,1,A
1781598758447,3516,-15692,728,1,A
1781598758468,3312,-15868,760,1,A
1781598758490,3132,-15892,484,1,A
1781598758511,3296,-15800,652,1,A
1781598758533,3064,-15996,1012,1,A
1781598758554,3376,-15904,588,1,A
1781598758576,3936,-16076,368,1,A
1781598758598,3596,-16172,580,1,A
1781598758619,3704,-15900,632,1,A
1781598758640,3708,-15916,676,1,A
1781598758662,3536,-15564,784,1,A
1781598758684,3408,-15508,812,1,A
1781598758705,3500,-15404,744,1,A
1781598758727,3920,-15544,616,1,A
1781598758749,3848,-15592,456,1,A
1781598758770,3896,-15624,488,1,A
1781598758791,3544,-15716,700,1,A
1781598758813,3432,-15792,676,1,A
1781598758835,3940,-16084,688,1,A
1781598758857,3844,-16264,832,1,A
1781598758878,3832,-15860,732,1,A
1781598758900,3452,-15804,576,1,A
1781598758921,3688,-16056,456,1,A
1781598758943,3076,-16152,616,1,A
1781598758964,3112,-15624,840,1,A
1781598758986,3252,-15752,916,1,A
1781598759008,3036,-16272,1060,1,A
1781598759029,3248,-15712,752,1,A
1781598759051,3140,-15428,776,1,A
1781598759072,3264,-15832,960,1,A
1781598759093,3412,-16464,452,1,A
1781598759115,3740,-15940,132,1,A
1781598759137,3352,-15776,704,1,A
1781598759158,3172,-16172,624,1,A
1781598759180,3464,-15936,352,1,A
1781598759202,3536,-15728,440,1,A
1781598759223,3244,-15596,872,1,A
1781598759245,3240,-15872,880,1,A
1781598759266,3724,-15848,580,1,A
1781598759288,3628,-15824,404,1,A
1781598759309,3628,-15800,544,1,A
1781598759331,3584,-15908,496,1,A
1781598759352,3472,-15920,700,1,A
1781598759374,3196,-15796,872,1,A
1781598759396,3260,-16012,764,1,A
1781598759417,3784,-16240,588,1,A
1781598759439,3880,-15748,156,1,A
1781598759461,3516,-15484,668,1,A
1781598759482,3132,-15944,1056,1,A
1781598759503,3380,-16244,628,1,A
1781598759525,3772,-15900,348,1,A
1781598759547,3500,-15552,652,1,A
1781598759568,2972,-15972,1104,1,A
1781598759589,3348,-15944,720,1,A
1781598759611,3584,-15576,656,1,A
1781598759633,3324,-15576,716,1,A
1781598759654,3344,-16024,680,1,A
1781598759676,3344,-16072,484,1,A
1781598759698,3328,-15888,384,1,A
1781598759719,3208,-15856,552,1,A
1781598759740,3360,-16096,476,1,A
1781598759762,3448,-15760,456,1,A
1781598759784,3456,-15700,500,1,A
1781598759805,3484,-15780,732,1,A
1781598759827,3640,-15916,488,1,A
1781598759848,3832,-16196,548,1,A
1781598759870,3452,-15808,800,1,A
1781598759891,3360,-15576,724,1,A
1781598759913,3376,-16012,840,1,A
1781598759935,3548,-16080,664,1,A
1781598759957,3440,-15836,600,1,A
1781598759978,3360,-15580,624,1,A
1781598759999,3584,-15744,548,1,A
1781598760021,3672,-15796,316,1,A
1781598760043,3628,-15540,456,1,A
1781598760064,3412,-15740,572,1,A
1781598760086,3560,-16064,520,1,A
1781598760107,3520,-15924,724,1,A
1781598760129,3268,-15892,776,1,A
1781598760150,3448,-15888,596,1,A
1781598760172,3440,-15924,844,1,A
1781598760194,3268,-15968,816,1,A
1781598760215,3336,-15896,784,1,A
1781598760237,3344,-15924,732,1,A
1781598760259,3344,-15952,572,1,A
1781598760279,3380,-15636,448,1,A
1781598760300,3252,-15652,476,1,A
1781598760323,3520,-15908,412,1,A
1781598760345,3744,-16004,424,1,A
1781598760365,3636,-15752,320,1,A
1781598760388,3488,-15768,460,1,A
1781598760409,3368,-15788,476,1,A
1781598760430,3428,-15820,504,1,A
1781598760453,3616,-15884,492,1,A
1781598760474,3592,-15824,672,1,A
1781598760495,3500,-15868,732,1,A
1781598760518,3588,-15748,644,1,A
1781598760538,3468,-15808,708,1,A
1781598760560,3492,-15912,580,1,A
1781598760581,3472,-15892,508,1,A
1781598760603,3624,-15532,548,1,A
1781598760625,3600,-15756,488,1,A
1781598760646,3624,-15912,384,1,A
1781598760667,3604,-16156,388,1,A
1781598760689,3580,-15764,452,1,A
1781598760711,3368,-15808,720,1,A
1781598760732,3180,-15992,824,1,A
1781598760754,3332,-16024,700,1,A
1781598760775,3416,-15964,700,1,A
1781598760797,3136,-15848,852,1,A
1781598760818,2984,-15848,516,1,A
1781598760841,3840,-15920,76,1,A
1781598760862,3444,-15804,548,1,A
1781598760883,3212,-15708,816,1,A
1781598760905,3396,-15720,588,1,A
1781598760926,3360,-16076,396,1,A
1781598760948,3692,-16060,160,1,A
1781598760970,3512,-15676,240,1,A
1781598760991,3496,-15648,436,1,A
1781598761013,3436,-15844,468,1,A
1781598761034,3580,-15916,484,1,A
1781598761056,3428,-15804,828,1,A
1781598761077,3384,-15920,796,1,A
1781598761099,3532,-15776,708,1,A
1781598761121,3904,-15916,368,1,A
1781598761142,3828,-15748,436,1,A
1781598761163,3724,-15828,476,1,A
1781598761186,3564,-15804,348,1,A
1781598761206,3672,-15636,260,1,A
1781598761228,3532,-15800,428,1,A
1781598761249,3244,-15828,620,1,A
1781598761271,3488,-15956,488,1,A
1781598761293,3676,-16044,376,1,A
1781598761314,3436,-15912,668,1,A
1781598761336,3044,-15808,744,1,A
1781598761358,3492,-15972,676,1,A
1781598761379,3468,-15976,600,1,A
1781598761401,3480,-15808,628,1,A
1781598761422,3324,-15580,640,1,A
1781598761444,3552,-15772,576,1,A
1781598761465,3680,-15980,432,1,A
1781598761486,3448,-15904,556,1,A
1781598761508,3392,-15760,620,1,A
1781598761530,3800,-16168,276,1,A
1781598761551,3704,-15904,240,1,A
1781598761573,3596,-15608,408,1,A
1781598761595,3372,-15732,540,1,A
1781598761616,3260,-15860,732,1,A
1781598761638,3568,-15860,488,1,A
1781598761659,3684,-15924,472,1,A
1781598761681,3572,-15708,600,1,A
1781598761702,3552,-15636,512,1,A
1781598761724,3760,-16008,472,1,A
1781598761746,3712,-16088,440,1,A
1781598761767,3684,-15660,508,1,A
1781598761788,3488,-15580,620,1,A
1781598761810,3424,-15740,548,1,A
1781598761832,3876,-16016,504,1,A
1781598761853,3848,-15756,344,1,A
1781598761875,3516,-15636,708,1,A
1781598761897,3464,-15948,744,1,A
1781598761918,3564,-16024,540,1,A
1781598761940,3584,-15880,408,1,A
1781598761960,3400,-15736,736,1,A
1781598761983,3208,-15756,960,1,A
1781598762004,3564,-15856,584,1,A
1781598762026,3664,-15820,288,1,A
1781598762047,3672,-15824,412,1,A
1781598762069,3456,-15852,568,1,A
1781598762091,3416,-15888,560,1,A
1781598762112,3520,-15808,532,1,A
1781598762133,3628,-15740,404,1,A
1781598762155,3576,-15756,484,1,A
1781598762176,3628,-15824,436,1,A
1781598762198,3708,-15920,476,1,A
1781598762220,3664,-15668,536,1,A
1781598762241,3576,-15692,764,1,A
1781598762264,3680,-15912,496,1,A
1781598762284,3816,-15952,468,1,A
1781598762306,3580,-15816,480,1,A
1781598762327,3460,-15624,632,1,A
1781598762349,3492,-15920,496,1,A
1781598762371,3824,-15936,376,1,A
1781598762392,3628,-15840,532,1,A
1781598762414,3552,-15552,544,1,A
1781598762436,3580,-15956,688,1,A
1781598762457,3752,-15884,472,1,A
1781598762479,3624,-15460,576,1,A
1781598762500,3448,-15816,708,1,A
1781598762522,3512,-16032,592,1,A
1781598762543,3440,-15996,596,1,A
1781598762565,3536,-15812,512,1,A
1781598762586,3460,-15728,752,1,A
1781598762608,3548,-15840,680,1,A
1781598762629,3524,-16024,628,1,A
1781598762651,3508,-15800,604,1,A
1781598762672,3416,-15684,608,1,A
1781598762694,3528,-15756,536,1,A
1781598762715,3672,-16028,540,1,A
1781598762737,3692,-15792,348,1,A
1781598762759,3656,-15700,524,1,A
1781598762781,3508,-15824,620,1,A
1781598762802,3460,-15892,540,1,A
1781598762824,3604,-15912,384,1,A
1781598762845,3520,-15844,580,1,A
1781598762867,3456,-15708,508,1,A
1781598762888,3388,-15848,612,1,A
1781598762910,3496,-15924,544,1,A
1781598762931,3592,-15864,444,1,A
1781598762953,3548,-15808,504,1,A
1781598762974,3408,-15848,680,1,A
1781598762996,3652,-15936,584,1,A
1781598763017,3664,-15820,532,1,A
1781598763039,3680,-15748,544,1,A
1781598763061,3680,-15792,580,1,A
1781598763082,3456,-15836,748,1,A
1781598763103,3568,-15960,672,1,A
1781598763125,3508,-15928,772,1,A
1781598763146,3464,-15804,784,1,A
1781598763168,3320,-15780,780,1,A
1781598763190,3256,-15764,708,1,A
1781598763211,3352,-15920,644,1,A
1781598763233,3456,-15792,492,1,A
1781598763254,3284,-15852,592,1,A
1781598763276,3300,-15920,612,1,A
1781598763298,3368,-15972,492,1,A
1781598763319,3388,-15872,532,1,A
1781598763341,3264,-15708,700,1,A
1781598763362,3376,-15896,432,1,A
1781598763384,3548,-16080,480,1,A
1781598763405,3636,-15884,276,1,A
1781598763427,3764,-15664,444,1,A
1781598763449,3324,-15772,668,1,A
1781598763469,3600,-15864,552,1,A
1781598763492,3448,-15924,524,1,A
1781598763514,3492,-15912,680,1,A
1781598763534,3560,-15684,560,1,A
1781598763556,3500,-15856,648,1,A
1781598763578,3608,-15892,548,1,A
1781598763599,3696,-15900,668,1,A
1781598763621,3360,-15584,736,1,A
1781598763642,3376,-15704,728,1,A
1781598763664,3352,-16064,712,1,A
1781598763685,3784,-15960,424,1,A
1781598763707,3432,-15688,668,1,A
1781598763729,3044,-15640,828,1,A
1781598763750,3128,-15692,804,1,A
1781598763772,3408,-16064,476,1,A
1781598763794,3440,-16096,544,1,A
1781598763815,3168,-15832,644,1,A
1781598763836,3284,-15684,596,1,A
1781598763858,3272,-15948,540,1,A
1781598763879,3456,-15884,480,1,A
1781598763901,3540,-15848,436,1,A
1781598763922,3444,-15760,520,1,A
1781598763945,3548,-15832,504,1,A
1781598763966,3772,-15892,548,1,A
1781598763987,3392,-15972,820,1,A
1781598764009,3396,-15892,628,1,A
1781598764031,3548,-15912,520,1,A
1781598764052,3492,-15868,636,1,A
1781598764074,3292,-15700,684,1,A
1781598764096,3288,-15964,604,1,A
1781598764117,3592,-15800,352,1,A
1781598764138,3556,-15648,544,1,A
1781598764160,3484,-15772,624,1,A
1781598764182,3708,-15972,656,1,A
1781598764204,3588,-15992,568,1,A
1781598764224,3600,-15720,608,1,A
1781598764246,3268,-15684,704,1,A
1781598764268,3212,-15864,788,1,A
1781598764289,3380,-15964,476,1,A
1781598764311,3588,-16220,528,1,A
1781598764332,3232,-15816,928,1,A
1781598764355,3208,-15684,764,1,A
1781598764378,3232,-16092,704,1,A
1781598764399,3516,-15832,588,1,A
1781598764420,3496,-15876,500,1,A
1781598764441,3536,-15864,576,1,A
1781598764463,3456,-15948,672,1,A
1781598764485,3524,-15752,700,1,A
1781598764506,3444,-15768,544,1,A
1781598764529,3524,-15720,504,1,A
1781598764549,3676,-15740,528,1,A
1781598764570,3536,-15832,632,1,A
1781598764592,3500,-16116,680,1,A
1781598764614,3500,-15920,480,1,A
1781598764636,3440,-15704,560,1,A
1781598764657,3288,-15696,644,1,A
1781598764679,3272,-15972,688,1,A
1781598764700,3388,-16020,644,1,A
1781598764722,3532,-15904,552,1,A
1781598764743,3372,-15668,676,1,A
1781598764765,3404,-15732,764,1,A
1781598764786,3700,-15952,500,1,A
1781598764808,3736,-15924,492,1,A
1781598764829,3688,-15784,608,1,A
1781598764850,3328,-15848,856,1,A
1781598764873,3332,-16044,808,1,A
1781598764895,3440,-16040,572,1,A
1781598764916,3208,-15620,696,1,A
1781598764937,3112,-15732,988,1,A
1781598764959,3188,-15972,708,1,A
1781598764981,3536,-15948,608,1,A
1781598765002,3560,-15836,540,1,A
1781598765023,3136,-15756,664,1,A
1781598765045,3296,-15884,652,1,A
1781598765067,3492,-15952,464,1,A
1781598765088,3600,-15696,648,1,A
1781598765111,3288,-15788,704,1,A
1781598765132,3692,-15952,404,1,A
1781598765153,3596,-15696,656,1,A
1781598765175,3344,-15688,836,1,A
1781598765196,3480,-15764,720,1,A
1781598765218,3736,-16032,560,1,A
1781598765239,3660,-15840,700,1,A
1781598765260,3376,-15700,772,1,A
1781598765282,3488,-15944,616,1,A
1781598765304,3680,-15848,504,1,A
1781598765325,3556,-15780,580,1,A
1781598765347,3508,-15800,700,1,A
1781598765369,3820,-15808,492,1,A
1781598765391,3712,-15752,596,1,A
1781598765412,3676,-15720,712,1,A
1781598765433,3388,-15984,828,1,A
1781598765455,3532,-15860,720,1,A
1781598765476,3460,-15672,640,1,A
1781598765498,3456,-15928,772,1,A
1781598765520,3608,-15936,860,1,A
1781598765541,3512,-15840,784,1,A
1781598765563,3516,-15852,720,1,A
1781598765585,3492,-15768,616,1,A
1781598765606,3524,-15892,600,1,A
1781598765627,3452,-15936,560,1,A
1781598765648,3452,-15808,488,1,A
1781598765671,3584,-15864,484,1,A
1781598765693,3572,-15764,576,1,A
1781598765713,3520,-15864,696,1,A
1781598765735,3652,-15836,508,1,A
1781598765757,3572,-15864,468,1,A
1781598765778,3584,-15920,620,1,A
1781598765800,3524,-15736,628,1,A
1781598765820,3540,-15684,464,1,A
1781598765843,3484,-15892,528,1,A
1781598765865,3696,-15932,528,1,A
1781598765886,3548,-15900,664,1,A
1781598765907,3436,-15864,660,1,A
1781598765929,3608,-15820,556,1,A
1781598765950,3664,-15868,516,1,A
1781598765973,3696,-15912,716,1,A
1781598765994,3676,-15932,620,1,A
1781598766016,3684,-15680,752,1,A
1781598766037,3620,-15812,636,1,A
1781598766059,3636,-16044,752,1,A
1781598766080,3552,-15712,812,1,A
1781598766102,3448,-15552,712,1,A
1781598766123,3604,-15928,468,1,A
1781598766145,3560,-15872,368,1,A
1781598766166,3364,-15736,464,1,A
1781598766188,3184,-15948,656,1,A
1781598766210,3140,-15988,680,1,A
1781598766231,3472,-15916,484,1,A
1781598766252,3484,-15784,376,1,A
1781598766274,3548,-15764,688,1,A
1781598766295,3596,-15760,744,1,A
1781598766317,3644,-15980,716,1,A
1781598766339,3740,-15884,688,1,A
1781598766361,3560,-15636,692,1,A
1781598766382,3540,-15708,588,1,A
1781598766403,3668,-16036,648,1,A
1781598766425,3756,-15924,568,1,A
1781598766446,3688,-15640,720,1,A
1781598766467,3516,-15784,740,1,A
1781598766489,3516,-15908,624,1,A
1781598766510,3636,-15944,596,1,A
1781598766533,3456,-15832,712,1,A
1781598766554,3300,-15804,840,1,A
1781598766576,3436,-15708,732,1,A
1781598766597,3544,-15952,620,1,A
1781598766618,3540,-15836,660,1,A
1781598766640,3296,-15668,720,1,A
1781598766662,3296,-15684,632,1,A
1781598766683,3376,-15852,592,1,A
1781598766705,3332,-15952,492,1,A
1781598766726,3272,-15900,548,1,A
1781598766748,3316,-15960,628,1,A
1781598766770,3224,-15792,660,1,A
1781598766792,3428,-16032,544,1,A
1781598766813,3620,-15912,592,1,A
1781598766835,3468,-15708,736,1,A
1781598766857,3576,-15740,600,1,A
1781598766877,3772,-16056,536,1,A
1781598766899,3620,-15900,696,1,A
1781598766921,3516,-15464,824,1,A
1781598766942,3528,-15792,628,1,A
1781598766964,3940,-15960,336,1,A
1781598766986,3736,-15848,376,1,A
1781598767007,3720,-15784,588,1,A
1781598767028,3520,-15828,732,1,A
1781598767050,3684,-15884,616,1,A
1781598767072,3672,-15864,584,1,A
1781598767093,3656,-15848,668,1,A
1781598767115,3624,-15836,748,1,A
1781598767137,3652,-15904,780,1,A
1781598767158,3540,-15780,672,1,A
1781598767179,3464,-15744,824,1,A
1781598767200,3420,-15828,688,1,A
1781598767223,3488,-15860,628,1,A
1781598767244,3424,-15892,660,1,A
1781598767265,3324,-15676,572,1,A
1781598767287,3456,-15916,544,1,A
1781598767309,3428,-16048,584,1,A
1781598767330,3548,-16012,452,1,A
1781598767352,3460,-15812,544,1,A
1781598767373,3460,-15684,644,1,A
1781598767395,3612,-15924,660,1,A
1781598767417,3840,-15900,528,1,A
1781598767438,3900,-15808,436,1,A
1781598767460,3664,-15668,568,1,A
1781598767482,3664,-15840,708,1,A
1781598767503,3756,-15904,528,1,A
1781598767524,3656,-15820,616,1,A
1781598767546,3648,-15752,512,1,A
1781598767568,3676,-15876,636,1,A
1781598767590,3716,-15784,644,1,A
1781598767610,3644,-15892,596,1,A
1781598767632,3684,-15820,580,1,A
1781598767654,3704,-15904,736,1,A
1781598767675,3596,-15828,732,1,A
1781598767697,3680,-15864,672,1,A
1781598767718,3744,-15992,728,1,A
1781598767740,3408,-15768,1096,1,A
1781598767761,3156,-15720,1072,1,A
1781598767783,3596,-16080,344,1,A
1781598767805,3888,-15876,36,1,A
1781598767827,3280,-15500,400,1,A
1781598767848,3136,-15780,568,1,A
1781598767870,3388,-16072,500,1,A
1781598767891,3556,-16044,376,1,A
1781598767913,3516,-15700,440,1,A
1781598767934,3628,-15720,500,1,A
1781598767956,3784,-15740,424,1,A
1781598767977,3928,-15952,372,1,A
1781598767999,3696,-15752,536,1,A
1781598768020,3824,-15704,608,1,A
1781598768042,3644,-15724,736,1,A
1781598768064,3760,-15900,568,1,A
1781598768085,4016,-15820,456,1,A
1781598768107,4056,-15668,584,1,A
1781598768128,3864,-15696,704,1,A
1781598768150,3808,-15844,612,1,A
1781598768171,3796,-15840,544,1,A
1781598768193,3852,-15696,548,1,A
1781598768214,3736,-15696,732,1,A
1781598768236,3740,-15712,896,1,A
1781598768257,3764,-15928,664,1,A
1781598768279,3792,-15844,552,1,A
1781598768301,3596,-15748,576,1,A
1781598768322,3492,-15716,620,1,A
1781598768344,3476,-15872,548,1,A
1781598768365,3604,-15868,344,1,A
1781598768387,3568,-15792,356,1,A
1781598768408,3492,-15824,524,1,A
1781598768430,3504,-15904,556,1,A
1781598768452,3704,-15880,436,1,A
1781598768473,3764,-15888,408,1,A
1781598768495,3712,-15700,672,1,A
1781598768516,3764,-15784,568,1,A
1781598768538,3840,-15612,612,1,A
1781598768559,4148,-15676,512,1,A
1781598768581,3960,-15832,560,1,A
1781598768602,3852,-15724,756,1,A
1781598768623,3768,-15504,692,1,A
1781598768646,4044,-15908,460,1,A
1781598768667,4112,-15888,380,1,A
1781598768689,4008,-15456,492,1,A
1781598768710,3520,-15596,672,1,A
1781598768732,3720,-15860,556,1,A
1781598768753,3924,-15768,356,1,A
1781598768775,3796,-15784,500,1,A
1781598768797,3592,-15796,532,1,A
1781598768818,3536,-15736,544,1,A
1781598768840,3688,-15920,672,1,A
1781598768861,3704,-15988,780,1,A
1781598768883,3728,-15908,692,1,A
1781598768904,3600,-15836,876,1,A
1781598768926,3536,-15712,784,1,A
1781598768947,3420,-15948,612,1,A
1781598768969,3748,-15712,380,1,A
1781598768990,3700,-15812,216,1,A
1781598769012,3388,-15732,688,1,A
1781598769033,3448,-15612,764,1,A
1781598769055,3732,-15776,524,1,A
1781598769077,4080,-15656,300,1,A
1781598769098,4024,-15532,276,1,A
1781598769120,4128,-15616,192,1,A
1781598769140,3888,-15804,300,1,A
1781598769163,3596,-15924,644,1,A
1781598769184,3584,-15852,724,1,A
1781598769206,3724,-15832,632,1,A
1781598769228,3968,-16036,404,1,A
1781598769249,4064,-16060,372,1,A
1781598769271,3588,-15824,588,1,A
1781598769292,3836,-15556,656,1,A
1781598769314,4336,-15596,476,1,A
1781598769336,3896,-15760,728,1,A
1781598769357,4160,-15276,300,1,A
1781598769378,4144,-15896,240,1,A
1781598769399,4472,-16076,328,1,A
1781598769421,3772,-15668,508,1,A
1781598769443,2972,-15380,892,1,A
1781598769464,3276,-15432,412,1,A
1781598769486,3280,-15932,244,1,A
1781598769508,3836,-16556,40,1,A
1781598769530,3788,-16484,-4,1,A
1781598769551,3840,-15756,36,1,A
1781598769573,3684,-15212,568,1,A
1781598769594,3556,-15580,800,1,A
1781598769615,4004,-16056,520,1,A
1781598769637,4548,-15532,156,1,A
1781598769658,4052,-15240,244,1,A
1781598769681,4128,-15892,352,1,A
1781598769702,4316,-15796,432,1,A
1781598769724,4068,-15784,584,1,A
1781598769745,3792,-15668,584,1,A
1781598769767,4628,-15708,260,1,A
1781598769788,4424,-15536,448,1,A
1781598769810,4068,-15608,512,1,A
1781598769831,3892,-15928,480,1,A
1781598769853,4096,-15836,400,1,A
1781598769874,3924,-15676,472,1,A
1781598769895,3556,-15588,700,1,A
1781598769917,3652,-15684,608,1,A
1781598769939,3796,-15912,312,1,A
1781598769961,3872,-15936,364,1,A
1781598769982,3696,-15664,324,1,A
1781598770003,3380,-15592,272,1,A
1781598770025,3452,-15900,168,1,A
1781598770047,3824,-15844,196,1,A
1781598770068,3900,-15760,312,1,A
1781598770090,3604,-15708,368,1,A
1781598770112,3580,-16032,316,1,A
1781598770133,4044,-15856,272,1,A
1781598770155,3792,-15752,440,1,A
1781598770176,4044,-15456,552,1,A
1781598770198,3848,-15640,852,1,A
1781598770218,3964,-15936,772,1,A
1781598770241,4220,-15688,448,1,A
1781598770262,4336,-15616,320,1,A
1781598770284,4200,-15724,420,1,A
1781598770305,4108,-15732,480,1,A
1781598770327,3972,-15860,428,1,A
1781598770350,4092,-15584,372,1,A
1781598770371,3800,-15424,556,1,A
1781598770393,3464,-15752,556,1,A
1781598770415,3840,-16168,272,1,A
1781598770437,3972,-15800,284,1,A
1781598770458,3404,-15480,792,1,A
1781598770480,3112,-15840,928,1,A
1781598770500,3628,-16132,524,1,A
1781598770522,3832,-15816,224,1,A
1781598770544,3584,-15660,456,1,A
1781598770565,3484,-15752,532,1,A
1781598770588,3712,-15956,304,1,A
1781598770609,3960,-15988,244,1,A
1781598770630,3800,-15852,504,1,A
1781598770652,3860,-15664,436,1,A
1781598770674,3868,-15608,456,1,A
1781598770695,3792,-15820,456,1,A
1781598770717,4060,-15676,268,1,A
1781598770738,4136,-15544,344,1,A
1781598770759,3868,-15672,460,1,A
1781598770781,3648,-15888,644,1,A
1781598770803,3888,-15800,320,1,A
1781598770825,3984,-15732,320,1,A
1781598770846,3892,-15768,444,1,A
1781598770867,3880,-15820,416,1,A
1781598770889,3872,-15796,416,1,A
1781598770910,3960,-15696,440,1,A
1781598770933,3816,-15824,500,1,A
1781598770954,3916,-15808,544,1,A
1781598770975,3964,-15932,544,1,A
1781598770997,4000,-15760,552,1,A
1781598771019,3732,-15752,788,1,A
1781598771040,3688,-15804,668,1,A
1781598771062,3648,-15620,584,1,A
1781598771083,3548,-15772,496,1,A
1781598771104,3540,-15696,352,1,A
1781598771126,3540,-15732,344,1,A
1781598771148,3408,-15984,368,1,A
1781598771169,3512,-15924,448,1,A
1781598771191,3604,-15816,352,1,A
1781598771213,3768,-15696,328,1,A
1781598771234,3816,-16016,424,1,A
1781598771255,3644,-15772,600,1,A
1781598771277,3688,-15564,636,1,A
1781598771298,3852,-16020,584,1,A
1781598771320,4224,-15924,240,1,A
1781598771342,3888,-15464,344,1,A
1781598771363,3600,-15692,504,1,A
1781598771385,3764,-15860,504,1,A
1781598771407,4008,-15848,320,1,A
1781598771427,3916,-15776,572,1,A
1781598771449,3800,-15664,708,1,A
1781598771471,3764,-15764,668,1,A
1781598771493,3920,-15920,408,1,A
1781598771514,4020,-16040,404,1,A
1781598771536,3680,-15792,820,1,A
1781598771557,3560,-15380,1044,1,A
1781598771579,3888,-15560,636,1,A
1781598771600,4304,-16032,196,1,A
1781598771622,3600,-15800,588,1,A
1781598771644,2892,-15592,940,1,A
1781598771665,2948,-15740,468,1,A
1781598771686,3592,-16080,176,1,A
1781598771708,3368,-16120,328,1,A
1781598771730,3428,-15808,452,1,A
1781598771751,3488,-15732,376,1,A
1781598771773,3644,-16104,328,1,A
1781598771794,3636,-15840,380,1,A
1781598771816,3456,-15516,492,1,A
1781598771838,3884,-15696,516,1,A
1781598771859,4084,-15680,760,1,A
1781598771880,3956,-15816,892,1,A
1781598771902,4180,-15972,500,1,A
1781598771924,4260,-15672,336,1,A
1781598771945,4016,-15716,448,1,A
1781598771967,3656,-15956,444,1,A
1781598771988,4108,-15904,292,1,A
1781598772009,3976,-15576,532,1,A
1781598772032,3732,-15576,800,1,A
1781598772053,3696,-15748,784,1,A
1781598772075,4100,-15952,520,1,A
1781598772096,4148,-15644,332,1,A
1781598772118,3904,-15768,660,1,A
1781598772139,3760,-15828,692,1,A
1781598772160,3628,-15704,756,1,A
1781598772182,3312,-15496,892,1,A
1781598772204,3512,-15772,488,1,A
1781598772226,3808,-15940,112,1,A
1781598772247,3528,-15708,348,1,A
1781598772269,3240,-15756,604,1,A
1781598772291,3420,-15904,404,1,A
1781598772312,3976,-15956,116,1,A
1781598772334,3824,-15872,480,1,A
1781598772355,3868,-15680,644,1,A
1781598772376,3940,-15808,684,1,A
1781598772398,4284,-16252,460,1,A
1781598772420,4092,-15988,636,1,A
1781598772442,3404,-15380,748,1,A
1781598772463,3360,-15068,824,1,A
1781598772484,3908,-15400,392,1,A
1781598772506,4264,-16268,224,1,A
1781598772527,4296,-15892,44,1,A
1781598772549,3824,-15712,444,1,A
1781598772570,3528,-15604,628,1,A
1781598772592,3768,-15848,532,1,A
1781598772613,3824,-15932,628,1,A
1781598772635,3836,-15900,520,1,A
1781598772657,3848,-15772,564,1,A
1781598772679,3968,-15748,604,1,A
1781598772700,3636,-15888,656,1,A
1781598772721,3812,-15600,652,1,A
1781598772743,3500,-15460,732,1,A
1781598772765,3544,-15612,524,1,A
1781598772786,3716,-15668,280,1,A
1781598772808,3696,-15728,180,1,A
1781598772829,3432,-15828,296,1,A
1781598772851,3564,-15828,268,1,A
1781598772873,3808,-15772,300,1,A
1781598772894,3776,-15792,532,1,A
1781598772915,3652,-16036,248,1,A
1781598772937,3856,-15856,156,1,A
1781598772959,3668,-15904,388,1,A
1781598772980,3292,-15740,768,1,A
1781598773002,3532,-15480,416,1,A
1781598773024,4012,-15808,84,1,A
1781598773045,4040,-15912,224,1,A
1781598773067,3920,-15540,292,1,A
1781598773088,3820,-15652,480,1,A
1781598773109,3860,-16036,352,1,A
1781598773131,4036,-15988,432,1,A
1781598773153,3984,-15588,412,1,A
1781598773174,3768,-15472,680,1,A
1781598773196,4024,-15792,568,1,A
1781598773217,4148,-15876,404,1,A
1781598773239,3976,-15704,408,1,A
1781598773260,3628,-15640,656,1,A
1781598773282,3636,-15568,600,1,A
1781598773303,3584,-15772,384,1,A
1781598773325,3484,-15844,208,1,A
1781598773347,3704,-15612,156,1,A
1781598773369,3372,-15840,396,1,A
1781598773390,3344,-15996,508,1,A
1781598773410,3608,-15996,336,1,A
1781598773433,3464,-15936,548,1,A
1781598773454,3656,-15740,356,1,A
1781598773476,3888,-15852,268,1,A
1781598773498,4180,-16084,260,1,A
1781598773519,3892,-15820,412,1,A
1781598773540,3656,-15652,568,1,A
1781598773562,3780,-15672,468,1,A
1781598773583,3924,-15680,300,1,A
1781598773606,4012,-15788,356,1,A
1781598773627,3768,-15604,512,1,A
1781598773648,3752,-15804,408,1,A
1781598773670,3808,-15868,312,1,A
1781598773692,3880,-15840,548,1,A
1781598773713,3864,-15704,404,1,A
1781598773734,3672,-15824,576,1,A
1781598773757,3732,-15996,596,1,A
1781598773778,3696,-15724,752,1,A
1781598773799,3720,-15808,564,1,A
1781598773820,3788,-15888,556,1,A
1781598773842,3656,-15616,552,1,A
1781598773864,3548,-15564,740,1,A
1781598773886,3424,-15808,568,1,A
1781598773907,3532,-15940,332,1,A
1781598773929,3644,-15792,236,1,A
1781598773950,3552,-15648,484,1,A
1781598773972,3440,-15860,640,1,A
1781598773993,3452,-15908,536,1,A
1781598774015,4072,-16012,224,1,A
1781598774037,4128,-15828,332,1,A
1781598774058,3584,-15644,640,1,A
1781598774080,3564,-15876,636,1,A
1781598774101,3860,-15700,376,1,A
1781598774122,4160,-15804,340,1,A
1781598774144,3720,-15732,480,1,A
1781598774166,3748,-15848,536,1,A
1781598774188,3904,-15824,276,1,A
1781598774208,3892,-15796,324,1,A
1781598774230,3732,-15784,544,1,A
1781598774253,3836,-15664,648,1,A
1781598774274,3856,-15716,548,1,A
1781598774295,3804,-15808,676,1,A
1781598774317,3912,-15812,624,1,A
1781598774338,3836,-15776,424,1,A
1781598774360,3612,-15776,612,1,A
1781598774381,3624,-15760,636,1,A
1781598774404,3812,-15612,340,1,A
1781598774425,3804,-15728,364,1,A
1781598774446,3556,-15792,396,1,A
1781598774468,3464,-15684,584,1,A
1781598774489,3368,-15816,352,1,A
1781598774511,3348,-15988,272,1,A
1781598774533,3488,-15968,336,1,A
1781598774554,3548,-16024,344,1,A
1781598774576,3576,-15924,460,1,A
1781598774597,3428,-15748,732,1,A
1781598774619,3740,-15652,420,1,A
1781598774641,3784,-15940,420,1,A
1781598774662,4064,-15696,416,1,A
1781598774684,3740,-15416,552,1,A
1781598774704,3876,-15564,624,1,A
1781598774726,4044,-15832,264,1,A
1781598774748,4224,-15796,188,1,A
1781598774769,3800,-15676,612,1,A
1781598774790,3724,-15648,548,1,A
1781598774813,3872,-15688,492,1,A
1781598774834,4028,-15736,344,1,A
1781598774856,3828,-15944,584,1,A
1781598774877,3440,-15924,720,1,A
1781598774899,3760,-15612,636,1,A
1781598774920,3632,-15908,640,1,A
1781598774942,3776,-15836,520,1,A
1781598774964,3788,-15636,548,1,A
1781598774985,3680,-15588,476,1,A
1781598775007,3544,-15896,380,1,A
1781598775028,3684,-15824,260,1,A
1781598775050,3460,-15680,460,1,A
1781598775072,3388,-15648,372,1,A
1781598775093,3328,-15968,392,1,A
1781598775115,3860,-16192,112,1,A
1781598775136,3876,-16224,356,1,A
1781598775158,3948,-15724,360,1,A
1781598775179,3588,-15576,520,1,A
1781598775201,3912,-15704,552,1,A
1781598775222,4292,-15924,296,1,A
1781598775243,4148,-15744,316,1,A
1781598775265,3860,-15580,468,1,A
1781598775287,3868,-15716,428,1,A
1781598775309,4188,-15736,308,1,A
1781598775330,3904,-15832,648,1,A
1781598775351,4100,-15792,396,1,A
1781598775373,4164,-15692,348,1,A
1781598775394,3704,-15664,632,1,A
1781598775416,3920,-15844,596,1,A
1781598775438,4008,-15848,620,1,A
1781598775460,3728,-15628,540,1,A
1781598775481,3944,-15624,412,1,A
1781598775502,4148,-15964,356,1,A
1781598775524,3848,-15476,416,1,A
1781598775545,3688,-15548,472,1,A
1781598775567,3428,-15840,308,1,A
1781598775589,3908,-15820,92,1,A
1781598775609,3980,-15868,176,1,A
1781598775632,3404,-15852,588,1,A
1781598775653,3648,-15860,544,1,A
1781598775675,4048,-15836,484,1,A
1781598775696,4112,-15708,400,1,A
1781598775719,4020,-15704,616,1,A
1781598775740,3796,-15564,672,1,A
1781598775760,3772,-15644,556,1,A
1781598775782,4156,-15668,248,1,A
1781598775804,4148,-15688,268,1,A
1781598775826,4136,-15724,424,1,A
1781598775847,3788,-15836,620,1,A
1781598775869,3828,-15944,544,1,A
1781598775890,3988,-15916,324,1,A
1781598775912,3732,-15808,720,1,A
1781598775934,3760,-15788,652,1,A
1781598775955,3760,-15912,664,1,A
1781598775977,3944,-15816,492,1,A
1781598775998,3976,-15672,636,1,A
1781598776020,3744,-15712,736,1,A
1781598776041,3672,-15792,608,1,A
1781598776062,3488,-15748,468,1,A
1781598776085,3580,-15672,332,1,A
1781598776106,3240,-15832,444,1,A
1781598776128,3360,-15824,364,1,A
1781598776149,3436,-15920,340,1,A
1781598776171,3584,-15928,332,1,A
1781598776192,3556,-15940,424,1,A
1781598776214,3652,-15992,488,1,A
1781598776235,3804,-15896,428,1,A
1781598776256,3644,-15664,596,1,A
1781598776279,3796,-15748,620,1,A
1781598776300,3844,-15692,600,1,A
1781598776323,3792,-15512,672,1,A
1781598776345,3988,-15656,264,1,A
1781598776366,4100,-15884,188,1,A
1781598776388,3972,-15576,360,1,A
1781598776409,3736,-15820,652,1,A
1781598776431,3928,-15992,576,1,A
1781598776452,4056,-15748,560,1,A
1781598776474,3776,-15788,772,1,A
1781598776495,3716,-15816,756,1,A
1781598776517,3868,-15868,656,1,A
1781598776539,3948,-15768,584,1,A
1781598776560,3780,-15804,584,1,A
1781598776581,3620,-15692,720,1,A
1781598776603,3768,-15576,504,1,A
1781598776625,3572,-15744,336,1,A
1781598776646,3592,-15872,212,1,A
1781598776668,3636,-15764,308,1,A
1781598776690,3468,-15812,340,1,A
1781598776711,3468,-15932,448,1,A
1781598776732,3692,-16040,356,1,A
1781598776754,3808,-15872,448,1,A
1781598776776,3632,-15624,632,1,A
1781598776798,3644,-15684,632,1,A
1781598776818,4016,-15740,444,1,A
1781598776841,4100,-15740,416,1,A
1781598776862,4012,-15528,452,1,A
1781598776884,3852,-15632,636,1,A
1781598776905,4208,-15776,408,1,A
1781598776926,4312,-15832,336,1,A
1781598776948,3892,-15772,660,1,A
1781598776970,3744,-15760,796,1,A
1781598776991,3972,-15804,684,1,A
1781598777013,4168,-15776,360,1,A
1781598777035,4104,-15792,456,1,A
1781598777056,3812,-15776,660,1,A
1781598777078,3780,-15700,852,1,A
1781598777100,3748,-15660,580,1,A
1781598777121,3764,-15668,372,1,A
1781598777142,3752,-15936,356,1,A
1781598777164,3520,-15696,300,1,A
1781598777184,3236,-15604,468,1,A
1781598777206,3796,-15824,104,1,A
1781598777228,3736,-16132,336,1,A
1781598777250,3528,-15900,396,1,A
1781598777272,3484,-15948,700,1,A
1781598777293,3676,-15836,532,1,A
1781598777315,3632,-15824,416,1,A
1781598777336,3808,-15780,584,1,A
1781598777358,3788,-15664,540,1,A
1781598777379,3980,-15736,388,1,A
1781598777400,4048,-15740,276,1,A
1781598777423,4000,-15944,456,1,A
1781598777444,4036,-15792,584,1,A
1781598777465,3792,-15528,784,1,A
1781598777488,3840,-15720,692,1,A
1781598777509,4012,-15876,524,1,A
1781598777530,4172,-15756,536,1,A
1781598777552,3972,-15496,460,1,A
1781598777573,3628,-15616,564,1,A
1781598777595,3628,-15932,316,1,A
1781598777616,3860,-15960,360,1,A
1781598777638,3288,-15588,640,1,A
1781598777659,3236,-15652,696,1,A
1781598777681,3504,-15716,308,1,A
1781598777703,3624,-15992,56,1,A
1781598777724,3320,-15916,428,1,A
1781598777746,3216,-15840,512,1,A
1781598777768,3476,-15940,356,1,A
1781598777789,3792,-16024,392,1,A
1781598777810,3584,-15980,516,1,A
1781598777832,3568,-15712,712,1,A
1781598777854,3708,-15700,800,1,A
1781598777875,3756,-15840,572,1,A
1781598777896,3992,-15704,380,1,A
1781598777917,3988,-15704,492,1,A
1781598777940,3824,-15612,488,1,A
1781598777962,3764,-15628,388,1,A
1781598777984,4088,-15888,320,1,A
1781598778004,3948,-15892,476,1,A
1781598778026,3772,-15672,460,1,A
1781598778047,3620,-15708,504,1,A
1781598778069,3712,-15976,568,1,A
1781598778091,3852,-16096,556,1,A
1781598778112,3576,-15836,868,1,A
1781598778133,3612,-15640,748,1,A
1781598778155,3620,-15676,780,1,A
1781598778177,3732,-15868,600,1,A
1781598778198,3740,-15792,428,1,A
1781598778220,3528,-15748,388,1,A
1781598778241,3488,-15676,360,1,A
1781598778263,3556,-15900,344,1,A
1781598778285,3672,-15876,276,1,A
1781598778307,3660,-15864,364,1,A
1781598778328,3628,-15924,408,1,A
1781598778349,3660,-16020,532,1,A
1781598778371,3616,-15960,496,1,A
1781598778392,3756,-15820,724,1,A
1781598778413,3732,-15772,808,1,A
1781598778435,3880,-15780,660,1,A
1781598778458,3984,-15740,516,1,A
1781598778479,4044,-15672,452,1,A
1781598778500,3940,-15556,380,1,A
1781598778522,3764,-15604,468,1,A
1781598778543,4004,-15808,124,1,A
1781598778565,4000,-15776,168,1,A
1781598778587,3720,-15768,440,1,A
1781598778609,3720,-15776,412,1,A
1781598778630,3724,-15876,764,1,A
1781598778651,3724,-15908,644,1,A
1781598778673,3820,-15824,580,1,A
1781598778694,3824,-15796,688,1,A
1781598778716,3872,-15788,616,1,A
1781598778737,3700,-15824,824,1,A
1781598778758,3744,-15616,520,1,A
1781598778781,3736,-15528,476,1,A
1781598778802,3908,-15996,244,1,A
1781598778824,3660,-15508,352,1,A
1781598778845,3504,-15728,372,1,A
1781598778866,3616,-15940,276,1,A
1781598778888,3844,-15992,312,1,A
1781598778909,3528,-15856,468,1,A
1781598778931,3528,-15868,540,1,A
1781598778953,3752,-15784,496,1,A
1781598778975,3904,-15876,516,1,A
1781598778996,4008,-15728,516,1,A
1781598779018,3952,-15800,472,1,A
1781598779039,3892,-15696,460,1,A
1781598779061,3904,-15580,472,1,A
1781598779082,4032,-15644,360,1,A
1781598779104,4116,-15700,336,1,A
1781598779125,4180,-15656,484,1,A
1781598779148,3888,-15820,580,1,A
1781598779168,3964,-15832,576,1,A
1781598779191,3956,-15772,556,1,A
1781598779212,3948,-15724,720,1,A
1781598779234,3968,-15764,736,1,A
1781598779255,3972,-15700,540,1,A
1781598779276,3976,-15592,344,1,A
1781598779298,3656,-15716,668,1,A
1781598779320,3508,-15696,696,1,A
1781598779341,3612,-15632,432,1,A
1781598779363,3660,-15876,228,1,A
1781598779385,3776,-15796,232,1,A
1781598779406,3512,-15784,344,1,A
1781598779428,3596,-15896,484,1,A
1781598779449,3904,-15828,420,1,A
1781598779470,3768,-15804,544,1,A
1781598779492,3748,-16032,508,1,A
1781598779513,4124,-15844,412,1,A
1781598779535,3860,-15560,616,1,A
1781598779557,3532,-15648,536,1,A
1781598779579,4080,-15976,344,1,A
1781598779600,4112,-15908,356,1,A
1781598779621,3808,-15724,696,1,A
1781598779644,3728,-15480,828,1,A
1781598779665,4116,-16028,528,1,A
1781598779686,4388,-15828,352,1,A
1781598779707,3864,-15576,628,1,A
1781598779729,3968,-15672,716,1,A
1781598779750,3892,-15816,604,1,A
1781598779772,3940,-15664,504,1,A
1781598779794,3632,-15648,612,1,A
1781598779815,3656,-15808,376,1,A
1781598779837,3688,-15880,440,1,A
1781598779859,3360,-15652,576,1,A
1781598779880,3456,-15640,428,1,A
1781598779902,3520,-15912,308,1,A
1781598779923,3816,-15788,172,1,A
1781598779945,3720,-15964,392,1,A
1781598779967,3684,-15832,488,1,A
1781598779988,3828,-15784,612,1,A
1781598780010,3816,-15812,596,1,A
1781598780030,3896,-15756,584,1,A
1781598780052,3940,-15712,564,1,A
1781598780074,3792,-15652,568,1,A
1781598780095,4128,-15608,308,1,A
1781598780117,4088,-15736,468,1,A
1781598780139,4132,-15696,484,1,A
1781598780160,3900,-15800,632,1,A
1781598780182,3752,-15652,724,1,A
1781598780203,3868,-15652,728,1,A
1781598780225,3880,-15740,624,1,A
1781598780247,4136,-15868,432,1,A
1781598780268,4060,-15868,356,1,A
1781598780289,3820,-15644,556,1,A
1781598780311,3512,-15524,752,1,A
1781598780333,3736,-15620,540,1,A
1781598780354,3764,-15864,492,1,A
1781598780375,3660,-15760,292,1,A
1781598780397,3612,-15664,380,1,A
1781598780419,3592,-15812,424,1,A
1781598780441,3540,-15824,544,1,A
1781598780462,3716,-15912,416,1,A
1781598780484,3772,-15988,568,1,A
1781598780505,3640,-15816,668,1,A
1781598780526,3568,-15560,784,1,A
1781598780548,3780,-15788,536,1,A
1781598780570,3928,-15912,420,1,A
1781598780591,4100,-15472,348,1,A
1781598780613,4048,-15656,384,1,A
1781598780634,4004,-16016,412,1,A
1781598780656,4096,-15916,496,1,A
1781598780678,4068,-15604,676,1,A
1781598780699,3860,-15572,892,1,A
1781598780721,4088,-15764,712,1,A
1781598780743,4180,-15792,548,1,A
1781598780763,3948,-15788,712,1,A
1781598780786,3748,-15608,772,1,A
1781598780807,3808,-15512,612,1,A
1781598780828,3808,-15776,552,1,A
1781598780850,3748,-15812,588,1,A
1781598780872,3904,-15672,344,1,A
1781598780893,3464,-15656,432,1,A
1781598780915,3384,-15856,520,1,A
1781598780936,3484,-16040,448,1,A
1781598780958,3600,-15776,472,1,A
1781598780980,3688,-15732,464,1,A
1781598781002,3748,-15776,536,1,A
1781598781022,3988,-15752,540,1,A
1781598781045,3976,-15812,600,1,A
1781598781066,3808,-15656,704,1,A
1781598781087,3920,-15588,576,1,A
1781598781109,4068,-15524,332,1,A
1781598781130,4252,-15744,204,1,A
1781598781152,4176,-15876,420,1,A
1781598781173,4044,-15788,612,1,A
1781598781196,4060,-15784,636,1,A
1781598781217,3944,-15700,840,1,A
1781598781238,3880,-15800,692,1,A
1781598781260,3916,-15768,664,1,A
1781598781282,3948,-15792,552,1,A
1781598781303,3848,-15700,572,1,A
1781598781324,3708,-15540,712,1,A
1781598781346,3780,-15884,400,1,A
1781598781368,3820,-15920,260,1,A
1781598781389,3396,-15544,512,1,A
1781598781411,3340,-15488,476,1,A
1781598781432,3652,-16000,440,1,A
1781598781454,3720,-15956,388,1,A
1781598781475,3568,-15784,472,1,A
1781598781497,3476,-16008,616,1,A
1781598781519,3772,-15992,508,1,A
1781598781540,3912,-15828,564,1,A
1781598781561,3680,-15756,676,1,A
1781598781583,3856,-15620,680,1,A
1781598781604,3956,-15636,484,1,A
1781598781626,4064,-15628,412,1,A
1781598781648,4224,-15672,344,1,A
1781598781669,4160,-15832,452,1,A
1781598781691,3792,-15824,624,1,A
1781598781712,4112,-15808,668,1,A
1781598781734,3808,-15676,712,1,A
1781598781755,4040,-15616,696,1,A
1781598781777,3804,-15808,600,1,A
1781598781799,3864,-15772,448,1,A
1781598781820,3820,-15712,620,1,A
1781598781842,3648,-15592,636,1,A
1781598781863,3684,-15644,452,1,A
1781598781885,3704,-15732,416,1,A
1781598781906,3672,-15760,204,1,A
1781598781928,3532,-15708,308,1,A
1781598781949,3488,-15768,300,1,A
1781598781971,3520,-15808,436,1,A
1781598781992,3796,-15884,260,1,A
1781598782014,3708,-16024,508,1,A
1781598782036,3680,-15840,628,1,A
1781598782057,3680,-15712,604,1,A
1781598782079,3876,-15836,632,1,A
1781598782100,3988,-15784,632,1,A
1781598782122,4076,-15592,412,1,A
1781598782144,4140,-15728,388,1,A
1781598782166,4080,-15560,472,1,A
1781598782187,3928,-15512,444,1,A
1781598782208,4076,-15780,264,1,A
1781598782230,4024,-16076,568,1,A
1781598782252,4048,-15684,668,1,A
1781598782273,3772,-15640,696,1,A
1781598782294,3968,-15856,608,1,A
1781598782317,3968,-15772,520,1,A
1781598782339,3916,-15792,668,1,A
1781598782360,3848,-15608,744,1,A
1781598782382,3912,-15616,540,1,A
1781598782404,3848,-15760,428,1,A
1781598782425,3804,-15652,472,1,A
1781598782447,3480,-15668,432,1,A
1781598782469,3552,-15632,356,1,A
1781598782490,3820,-15892,100,1,A
1781598782511,3736,-15912,324,1,A
1781598782533,3584,-15820,552,1,A
1781598782555,3604,-15884,724,1,A
1781598782576,3792,-15864,572,1,A
1781598782597,3932,-15880,512,1,A
1781598782619,3992,-15696,524,1,A
1781598782641,3920,-15504,512,1,A
1781598782662,3996,-15528,448,1,A
1781598782684,4392,-15724,304,1,A
1781598782705,4404,-15920,276,1,A
1781598782728,4124,-15744,504,1,A
1781598782748,3696,-15620,844,1,A
1781598782769,3908,-15680,736,1,A
1781598782792,4120,-15884,572,1,A
1781598782813,4220,-15812,644,1,A
1781598782835,3988,-15680,700,1,A
1781598782856,3776,-15652,612,1,A
1781598782878,3968,-15720,528,1,A
1781598782900,3864,-15692,464,1,A
1781598782920,3644,-15712,436,1,A
1781598782942,3720,-15844,324,1,A
1781598782964,3584,-15748,412,1,A
1781598782986,3428,-15548,584,1,A
1781598783008,3672,-15772,392,1,A
1781598783029,3964,-16072,244,1,A
1781598783050,3832,-15828,552,1,A
1781598783072,3892,-15744,616,1,A
1781598783094,3808,-15980,728,1,A
1781598783115,4080,-15888,652,1,A
1781598783136,4156,-15708,452,1,A
1781598783158,3920,-15480,508,1,A
1781598783179,3716,-15564,628,1,A
1781598783202,4208,-15528,260,1,A
1781598783223,4252,-15744,340,1,A
1781598783245,4156,-15728,476,1,A
1781598783266,3976,-15724,704,1,A
1781598783288,4008,-15580,756,1,A
1781598783309,4216,-15760,668,1,A
1781598783330,4240,-15756,652,1,A
1781598783352,3964,-15664,656,1,A
1781598783373,3984,-15796,656,1,A
1781598783395,3916,-15756,524,1,A
1781598783417,3860,-15636,424,1,A
1781598783438,3572,-15608,692,1,A
1781598783460,3716,-15704,432,1,A
1781598783482,4024,-15704,296,1,A
1781598783503,3760,-15756,244,1,A
1781598783525,3788,-15784,420,1,A
1781598783546,3580,-15760,456,1,A
1781598783568,3804,-15772,540,1,A
1781598783589,3952,-15804,464,1,A
1781598783611,3948,-15836,524,1,A
1781598783632,3928,-15760,624,1,A
1781598783654,3888,-15716,628,1,A
1781598783675,4004,-15700,536,1,A
1781598783697,3996,-15744,536,1,A
1781598783719,4060,-15588,464,1,A
1781598783740,4052,-15612,424,1,A
1781598783761,4200,-15600,376,1,A
1781598783783,4140,-15880,312,1,A
1781598783805,4280,-15852,428,1,A
1781598783826,3932,-15600,840,1,A
1781598783848,3736,-15468,868,1,A
1781598783869,4104,-15992,504,1,A
1781598783891,4776,-15728,260,1,A
1781598783912,4372,-15436,420,1,A
1781598783934,3776,-15692,876,1,A
1781598783957,3396,-15888,1040,1,A
1781598783978,3840,-15748,572,1,A
1781598783999,3904,-15484,204,1,A
1781598784021,3636,-15608,376,1,A
1781598784042,3656,-15736,380,1,A
1781598784064,3688,-15908,220,1,A
1781598784085,3728,-15840,380,1,A
1781598784107,3816,-15892,524,1,A
1781598784128,3860,-15840,576,1,A
1781598784149,3804,-15784,576,1,A
1781598784172,3924,-15740,600,1,A
1781598784193,4120,-15604,620,1,A
1781598784215,4020,-15544,616,1,A
1781598784236,4012,-15568,632,1,A
1781598784258,4232,-15688,420,1,A
1781598784279,4264,-15740,232,1,A
1781598784301,4272,-15744,452,1,A
1781598784322,4132,-15664,660,1,A
1781598784344,4156,-15636,676,1,A
1781598784365,4192,-15920,640,1,A
1781598784387,4172,-15768,700,1,A
1781598784409,4092,-15704,636,1,A
1781598784430,3900,-15636,688,1,A
1781598784452,4000,-15632,544,1,A
1781598784473,4008,-15732,596,1,A
1781598784495,3944,-15744,572,1,A
1781598784517,3672,-15636,372,1,A
1781598784538,3736,-15796,384,1,A
1781598784559,3300,-15756,400,1,A
1781598784581,3604,-15676,272,1,A
1781598784603,3704,-15900,340,1,A
1781598784624,3748,-16008,536,1,A
1781598784646,3684,-15964,688,1,A
1781598784667,4168,-15852,440,1,A
1781598784689,4020,-15808,628,1,A
1781598784710,3900,-15536,820,1,A
1781598784732,4064,-15400,660,1,A
1781598784754,4440,-15804,356,1,A
1781598784775,4296,-15692,396,1,A
1781598784797,4164,-15436,548,1,A
1781598784818,3872,-15756,476,1,A
1781598784840,4140,-15844,240,1,A
1781598784862,4132,-15856,448,1,A
1781598784883,3816,-15700,720,1,A
1781598784904,3736,-15808,656,1,A
1781598784926,4152,-15860,488,1,A
1781598784947,4132,-15932,648,1,A
1781598784969,3876,-15704,836,1,A
1781598784991,3784,-15676,868,1,A
1781598785012,3964,-15712,468,1,A
1781598785035,4088,-15772,380,1,A
1781598785055,3984,-15600,592,1,A
1781598785077,3680,-15448,676,1,A
1781598785098,3668,-15640,404,1,A
1781598785120,3928,-15908,164,1,A
1781598785141,3868,-15816,316,1,A
1781598785163,3564,-15856,600,1,A
1781598785185,3800,-15756,520,1,A
1781598785206,3976,-15836,480,1,A
1781598785228,3992,-15820,468,1,A
1781598785249,3968,-15868,560,1,A
1781598785271,4000,-15548,556,1,A
1781598785292,4068,-15656,472,1,A
1781598785314,4112,-15540,428,1,A
1781598785335,3976,-15652,408,1,A
1781598785357,4252,-15732,248,1,A
1781598785378,4220,-15736,404,1,A
1781598785400,4004,-15668,604,1,A
1781598785422,4240,-15640,488,1,A
1781598785443,4104,-15868,588,1,A
1781598785465,4308,-16008,604,1,A
1781598785486,4072,-15804,672,1,A
1781598785508,3812,-15804,668,1,A
1781598785529,3732,-15692,636,1,A
1781598785551,3748,-15480,564,1,A
1781598785572,3944,-15448,404,1,A
1781598785594,3916,-15652,384,1,A
1781598785615,3796,-15556,332,1,A
1781598785637,3612,-15740,376,1,A
1781598785658,3608,-15864,320,1,A
1781598785680,3728,-15768,248,1,A
1781598785702,3752,-15812,488,1,A
1781598785723,3760,-15888,596,1,A
1781598785744,3844,-15752,600,1,A
1781598785766,4012,-15752,520,1,A
1781598785787,4124,-15704,324,1,A
1781598785810,3928,-15636,536,1,A
1781598785831,3800,-15568,536,1,A
1781598785852,4396,-15732,316,1,A
1781598785873,4248,-15900,424,1,A
1781598785896,4224,-15716,556,1,A
1781598785917,4040,-15708,760,1,A
1781598785938,3940,-15788,796,1,A
1781598785960,4028,-15776,748,1,A
1781598785982,4244,-15728,440,1,A
1781598786003,4232,-15516,436,1,A
1781598786025,4020,-15592,592,1,A
1781598786046,3984,-15632,532,1,A
1781598786068,4176,-15580,384,1,A
1781598786089,4268,-15756,244,1,A
1781598786111,3880,-15596,336,1,A
1781598786133,3680,-15648,388,1,A
1781598786154,3588,-15788,376,1,A
1781598786175,3672,-15764,336,1,A
1781598786198,3764,-15888,324,1,A
1781598786218,3728,-15916,584,1,A
1781598786241,3732,-15960,652,1,A
1781598786262,3900,-15712,536,1,A
1781598786284,4080,-15748,444,1,A
1781598786305,4000,-15716,452,1,A
1781598786327,3964,-15500,512,1,A
1781598786348,4276,-15628,180,1,A
1781598786370,4420,-15820,252,1,A
1781598786391,4484,-15868,508,1,A
1781598786413,4188,-15632,688,1,A
1781598786434,4008,-15816,916,1,A
1781598786456,4120,-15900,700,1,A
1781598786478,4372,-15724,532,1,A
1781598786499,4116,-15504,484,1,A
1781598786521,3992,-15644,540,1,A
1781598786542,4148,-15580,392,1,A
1781598786563,4092,-15588,468,1,A
1781598786586,3740,-15660,468,1,A
1781598786606,3748,-15532,420,1,A
1781598786628,3852,-15680,148,1,A
1781598786649,3728,-15864,208,1,A
1781598786672,3716,-15788,256,1,A
1781598786693,3736,-15800,400,1,A
1781598786715,3828,-15912,548,1,A
1781598786736,4108,-16000,500,1,A
1781598786758,4080,-15876,444,1,A
1781598786779,3984,-15568,644,1,A
1781598786801,3948,-15648,628,1,A
1781598786822,4148,-15528,440,1,A
1781598786844,4412,-15592,200,1,A
1781598786865,4484,-15664,140,1,A
1781598786886,4316,-15648,384,1,A
1781598786908,4352,-15676,460,1,A
1781598786930,4208,-15696,564,1,A
1781598786952,4244,-15748,664,1,A
1781598786973,4128,-15840,696,1,A
1781598786994,4076,-15700,632,1,A
1781598787016,4036,-15648,512,1,A
1781598787038,4116,-15644,440,1,A
1781598787060,4128,-15600,536,1,A
1781598787081,3956,-15576,516,1,A
1781598787102,3904,-15692,364,1,A
1781598787124,3808,-15744,204,1,A
1781598787146,3608,-15548,392,1,A
1781598787167,3796,-15692,68,1,A
1781598787188,4040,-16152,188,1,A
1781598787210,3920,-15804,356,1,A
1781598787232,3752,-15740,588,1,A
1781598787253,3956,-15832,672,1,A
1781598787275,4088,-15916,564,1,A
1781598787297,4152,-15716,472,1,A
1781598787318,4068,-15496,664,1,A
1781598787340,4232,-15532,372,1,A
1781598787361,4640,-15804,192,1,A
1781598787383,4544,-15780,400,1,A
1781598787404,4280,-15644,656,1,A
1781598787426,4200,-15584,624,1,A
1781598787447,4176,-15728,744,1,A
1781598787469,4428,-15868,548,1,A
1781598787491,4240,-15544,752,1,A
1781598787512,4256,-15512,548,1,A
1781598787534,4176,-15744,564,1,A
1781598787555,4032,-15660,624,1,A
1781598787577,3904,-15616,588,1,A
1781598787599,3756,-15540,480,1,A
1781598787619,3808,-15648,268,1,A
1781598787642,3936,-15708,100,1,A
1781598787664,3884,-15720,324,1,A
1781598787686,3856,-15824,336,1,A
1781598787705,3784,-15876,316,1,A
1781598787728,3916,-15804,360,1,A
1781598787749,3916,-15668,604,1,A
1781598787771,4048,-15660,648,1,A
1781598787793,4168,-15712,544,1,A
1781598787813,4168,-15648,480,1,A
1781598787835,4156,-15448,456,1,A
1781598787857,4172,-15508,452,1,A
1781598787879,4384,-15748,236,1,A
1781598787900,4420,-15620,384,1,A
1781598787921,4332,-15636,532,1,A
1781598787943,4192,-15740,644,1,A
1781598787964,4144,-15708,740,1,A
1781598787986,4216,-15648,760,1,A
1781598788008,4280,-15504,668,1,A
1781598788030,4544,-15784,504,1,A
1781598788051,4388,-15912,392,1,A
1781598788072,4248,-15420,428,1,A
1781598788094,3888,-15412,588,1,A
1781598788116,3844,-15752,536,1,A
1781598788138,3980,-15708,108,1,A
1781598788160,3884,-15720,200,1,A
1781598788180,3460,-16020,-12,1,A
1781598788202,3744,-15836,428,1,A
1781598788223,3540,-16052,604,1,A
1781598788245,3836,-15808,580,1,A
1781598788266,3592,-15568,752,1,A
1781598788288,4076,-15360,460,1,A
1781598788311,4524,-15720,436,1,A
1781598788333,4740,-15576,448,1,A
1781598788354,4484,-15236,468,1,A
1781598788376,4476,-15440,476,1,A
1781598788397,4384,-15964,400,1,A
1781598788419,4312,-15980,256,1,A
1781598788440,4356,-15832,404,1,A
1781598788462,3864,-15696,824,1,A
1781598788483,3852,-15692,908,1,A
1781598788505,4016,-15700,692,1,A
1781598788527,4324,-15584,300,1,A
1781598788548,4432,-15616,380,1,A
1781598788570,4128,-15704,536,1,A
1781598788592,4040,-15644,552,1,A
1781598788613,4004,-15408,448,1,A
1781598788634,4012,-15420,208,1,A
1781598788656,4100,-15812,228,1,A
1781598788677,3860,-15932,316,1,A
1781598788698,3656,-15748,396,1,A
1781598788720,3860,-15676,380,1,A
1781598788742,3976,-15960,452,1,A
1781598788764,3896,-16024,572,1,A
1781598788786,4000,-15728,576,1,A
1781598788807,4140,-15420,512,1,A
1781598788828,4248,-15704,424,1,A
1781598788850,4332,-15728,424,1,A
1781598788872,4172,-15524,364,1,A
1781598788894,4372,-15656,128,1,A
1781598788914,4424,-15952,344,1,A
1781598788937,4288,-15776,620,1,A
1781598788958,4036,-15764,736,1,A
1781598788979,4040,-15784,648,1,A
1781598789001,4224,-15700,424,1,A
1781598789022,4332,-15676,548,1,A
1781598789044,3976,-15768,848,1,A
1781598789065,4072,-15548,632,1,A
1781598789087,4088,-15568,364,1,A
1781598789109,4044,-15740,204,1,A
1781598789130,3676,-15620,400,1,A
1781598789152,3768,-15448,260,1,A
1781598789174,3996,-15472,84,1,A
1781598789195,4240,-15700,60,1,A
1781598789216,4168,-15784,180,1,A
1781598789238,4052,-15736,404,1,A
1781598789260,3872,-15704,584,1,A
1781598789281,4076,-15852,448,1,A
1781598789303,4184,-15884,456,1,A
1781598789324,4140,-15536,548,1,A
1781598789346,4100,-15376,544,1,A
1781598789368,4516,-15400,320,1,A
1781598789389,4648,-15844,248,1,A
1781598789410,4544,-15632,200,1,A
1781598789432,4260,-15564,512,1,A
1781598789454,4300,-15676,580,1,A
1781598789475,4360,-15616,564,1,A
1781598789497,4456,-15812,508,1,A
1781598789518,4188,-15656,616,1,A
1781598789539,4220,-15636,592,1,A
1781598789561,4140,-15636,564,1,A
1781598789583,4228,-15656,424,1,A
1781598789605,4136,-15816,452,1,A
1781598789626,3876,-15572,588,1,A
1781598789648,3848,-15444,520,1,A
1781598789669,4008,-15604,164,1,A
1781598789691,4024,-15952,160,1,A
1781598789713,3884,-15616,304,1,A
1781598789734,3928,-15580,348,1,A
1781598789755,3984,-15852,456,1,A
1781598789777,4084,-15892,512,1,A
1781598789799,3940,-15556,724,1,A
1781598789820,3772,-15376,892,1,A
1781598789842,4104,-15676,620,1,A
1781598789863,4596,-16048,96,1,A
1781598789885,4984,-15592,96,1,A
1781598789907,4708,-15440,500,1,A
1781598789928,3968,-15440,756,1,A
1781598789950,4580,-15544,256,1,A
1781598789971,4916,-15604,-272,1,A
1781598789993,4392,-15180,172,1,A
1781598790014,4904,-15920,4,1,A
1781598790036,4104,-15504,236,1,A
1781598790057,4052,-15492,132,1,A
1781598790079,4260,-15620,-120,1,A
1781598790101,4132,-15652,-236,1,A
1781598790122,3572,-15580,268,1,A
1781598790144,3556,-15928,512,1,A
1781598790165,3128,-15692,796,1,A
1781598790187,3868,-15516,724,1,A
1781598790209,4668,-16144,40,1,A
1781598790230,4952,-16256,208,1,A
1781598790252,4084,-15964,360,1,A
1781598790274,3892,-15708,580,1,A
1781598790295,4048,-15888,400,1,A
1781598790316,4444,-16028,20,1,A
1781598790338,4096,-15912,36,1,A
1781598790360,3756,-15576,224,1,A
1781598790381,4212,-15512,176,1,A
1781598790402,4560,-15660,148,1,A
1781598790425,4808,-15516,-92,1,A
1781598790445,4688,-15268,124,1,A
1781598790467,4292,-15288,420,1,A
1781598790489,4156,-15216,692,1,A
1781598790510,4104,-15516,676,1,A
1781598790532,4480,-15612,496,1,A
1781598790553,4696,-15536,544,1,A
1781598790575,4292,-15724,576,1,A
1781598790596,4112,-15696,740,1,A
1781598790618,4072,-15580,644,1,A
1781598790639,4260,-15764,420,1,A
1781598790661,4372,-15528,264,1,A
1781598790683,4512,-15528,176,1,A
1781598790704,4652,-15560,144,1,A
1781598790726,4540,-15720,332,1,A
1781598790747,4312,-15480,216,1,A
1781598790769,4236,-15680,332,1,A
1781598790791,4076,-15804,220,1,A
1781598790812,4204,-15484,316,1,A
1781598790834,3888,-15552,640,1,A
1781598790855,4044,-15656,792,1,A
1781598790877,4352,-15856,424,1,A
1781598790898,4524,-16044,372,1,A
1781598790920,4280,-15948,412,1,A
1781598790941,4120,-15884,512,1,A
1781598790964,3932,-15748,600,1,A
1781598790984,4036,-15468,476,1,A
1781598791006,4332,-15560,224,1,A
1781598791028,4596,-15516,88,1,A
1781598791049,4500,-15660,288,1,A
1781598791070,4344,-15824,292,1,A
1781598791092,4492,-15392,176,1,A
1781598791114,3824,-15428,636,1,A
1781598791136,4192,-15844,612,1,A
1781598791157,4508,-15900,300,1,A
1781598791178,4128,-15788,580,1,A
1781598791201,4264,-15620,528,1,A
1781598791221,4180,-15512,484,1,A
1781598791243,3952,-15500,704,1,A
1781598791265,3856,-16080,504,1,A
1781598791287,3972,-16024,564,1,A
1781598791308,4232,-15400,340,1,A
1781598791329,4260,-15408,116,1,A
1781598791350,4080,-15840,168,1,A
1781598791373,4148,-15592,172,1,A
1781598791395,4272,-15412,424,1,A
1781598791415,4360,-15668,232,1,A
1781598791437,4540,-15876,-28,1,A
1781598791458,4860,-15608,-52,1,A
1781598791480,4272,-15440,520,1,A
1781598791502,3964,-15400,960,1,A
1781598791523,4208,-15792,408,1,A
1781598791545,4676,-15896,332,1,A
1781598791566,4368,-15736,532,1,A
1781598791588,4624,-15624,524,1,A
1781598791610,4304,-15636,484,1,A
1781598791630,4860,-15888,376,1,A
1781598791653,4504,-15476,884,1,A
1781598791674,4144,-15316,668,1,A
1781598791696,3844,-15344,636,1,A
1781598791717,4540,-15156,628,1,A
1781598791738,4244,-15888,620,1,A
1781598791761,4528,-15152,656,1,A
1781598791783,3996,-15684,504,1,A
1781598791803,4268,-15896,324,1,A
1781598791825,4240,-15676,416,1,A
1781598791847,3596,-15260,788,1,A
1781598791868,4164,-15488,396,1,A
1781598791890,5132,-15572,536,1,A
1781598791911,4548,-15412,636,1,A
1781598791933,4376,-15680,524,1,A
1781598791955,4220,-15540,352,1,A
1781598791976,5020,-15724,188,1,A
1781598791999,4632,-15964,552,1,A
1781598792019,4264,-15676,684,1,A
1781598792041,4376,-15456,292,1,A
1781598792062,4676,-15716,328,1,A
1781598792084,4096,-15644,500,1,A
1781598792106,4248,-15252,360,1,A
1781598792128,4748,-15384,156,1,A
1781598792148,4588,-15704,368,1,A
1781598792170,4636,-15732,448,1,A
1781598792192,4208,-15800,528,1,A
1781598792213,4608,-15824,36,1,A
1781598792235,4624,-15664,220,1,A
1781598792256,4084,-15532,564,1,A
1781598792278,4280,-15568,548,1,A
1781598792299,4604,-15664,284,1,A
1781598792321,4456,-15544,384,1,A
1781598792343,4216,-15480,464,1,A
1781598792364,4468,-15344,236,1,A
1781598792385,4556,-15464,220,1,A
1781598792407,4772,-15688,196,1,A
1781598792429,4376,-15552,392,1,A
1781598792451,4352,-15568,480,1,A
1781598792472,4236,-15572,528,1,A
1781598792493,4348,-15664,420,1,A
1781598792515,4532,-15560,356,1,A
1781598792536,4480,-15648,416,1,A
1781598792559,4472,-15640,508,1,A
1781598792580,4416,-15496,452,1,A
1781598792601,4432,-15544,492,1,A
1781598792624,4540,-15616,228,1,A
1781598792644,4428,-15536,364,1,A
1781598792666,4168,-15528,416,1,A
1781598792687,4096,-15556,444,1,A
1781598792709,4380,-15860,284,1,A
1781598792731,4496,-15632,312,1,A
1781598792752,4556,-15600,144,1,A
1781598792774,4568,-15784,336,1,A
1781598792795,4420,-15676,580,1,A
1781598792817,4480,-15448,492,1,A
1781598792838,4472,-15512,632,1,A
1781598792860,4552,-15708,392,1,A
1781598792882,4528,-15624,464,1,A
1781598792903,4296,-15428,512,1,A
1781598792924,4352,-15564,444,1,A
1781598792946,4464,-15696,360,1,A
1781598792968,4572,-15528,432,1,A
1781598792989,4484,-15448,496,1,A
1781598793010,4604,-15380,408,1,A
1781598793032,4496,-15468,432,1,A
1781598793054,4424,-15560,340,1,A
1781598793076,4432,-15732,444,1,A
1781598793098,4396,-15680,596,1,A
1781598793119,4504,-15632,620,1,A
1781598793141,4480,-15672,472,1,A
1781598793162,4416,-15696,496,1,A
1781598793184,4020,-15624,676,1,A
1781598793205,4336,-15648,496,1,A
1781598793227,4428,-15756,408,1,A
1781598793248,4236,-15816,356,1,A
1781598793270,4228,-15564,408,1,A
1781598793290,4424,-15412,580,1,A
1781598793312,4512,-15396,392,1,A
1781598793334,4728,-15528,316,1,A
1781598793356,4968,-15636,292,1,A
1781598793377,4720,-15552,444,1,A
1781598793399,4280,-15364,612,1,A
1781598793420,4464,-15416,452,1,A
1781598793442,4420,-15752,560,1,A
1781598793463,4248,-15752,552,1,A
1781598793485,4128,-15604,592,1,A
1781598793506,4100,-15592,568,1,A
1781598793529,4188,-15712,524,1,A
1781598793550,4212,-15696,544,1,A
1781598793571,4404,-15732,460,1,A
1781598793594,4492,-15428,624,1,A
1781598793615,4448,-15428,596,1,A
1781598793636,4684,-15756,400,1,A
1781598793657,4588,-15604,504,1,A
1781598793679,4316,-15356,708,1,A
1781598793701,4268,-15612,740,1,A
1781598793722,4224,-15764,684,1,A
1781598793745,4480,-15760,500,1,A
1781598793765,4328,-15544,408,1,A
1781598793787,4300,-15432,548,1,A
1781598793808,4220,-15612,436,1,A
1781598793830,4300,-15636,432,1,A
1781598793852,4312,-15620,412,1,A
1781598793873,4428,-15720,364,1,A
1781598793894,4412,-15484,464,1,A
1781598793916,4564,-15812,564,1,A
1781598793938,4672,-15712,600,1,A
1781598793960,4568,-15572,740,1,A
1781598793982,4368,-15612,720,1,A
1781598794002,4456,-15492,712,1,A
1781598794024,4528,-15596,772,1,A
1781598794045,4468,-15600,624,1,A
1781598794067,4436,-15620,684,1,A
1781598794089,4500,-15424,496,1,A
1781598794110,4304,-15420,436,1,A
1781598794132,4312,-15528,320,1,A
1781598794154,4508,-15704,492,1,A
1781598794175,4316,-15664,592,1,A
1781598794196,4284,-15708,532,1,A
1781598794218,4200,-15648,504,1,A
1781598794240,4176,-15648,508,1,A
1781598794261,4336,-15600,420,1,A
1781598794284,4416,-15516,660,1,A
1781598794306,4276,-15704,696,1,A
1781598794327,4376,-15884,480,1,A
1781598794348,4548,-15656,156,1,A
1781598794370,4496,-15388,292,1,A
1781598794392,4404,-15440,336,1,A
1781598794413,4560,-15712,344,1,A
1781598794435,4700,-15756,552,1,A
1781598794457,4492,-15316,556,1,A
1781598794478,4372,-15596,552,1,A
1781598794501,4404,-15668,376,1,A
1781598794521,4432,-15436,832,1,A
1781598794543,4228,-15608,908,1,A
1781598794564,4328,-15864,716,1,A
1781598794586,4488,-15588,392,1,A
1781598794608,4508,-15384,472,1,A
1781598794630,4416,-15524,644,1,A
1781598794651,4288,-15632,716,1,A
1781598794672,4324,-15452,428,1,A
1781598794694,4288,-15600,364,1,A
1781598794715,4364,-15732,224,1,A
1781598794737,4180,-15676,500,1,A
1781598794758,4160,-15760,472,1,A
1781598794780,4032,-15684,280,1,A
1781598794802,4336,-15588,236,1,A
1781598794823,4452,-15608,332,1,A
1781598794845,4296,-15804,580,1,A
1781598794866,4408,-15892,772,1,A
1781598794888,4684,-15664,688,1,A
1781598794910,4812,-15504,776,1,A
1781598794931,4804,-15464,816,1,A
1781598794953,4872,-15428,776,1,A
1781598794974,4760,-15428,616,1,A
1781598794996,4692,-15364,528,1,A
1781598795017,4528,-15256,340,1,A
1781598795039,4348,-15348,212,1,A
1781598795061,4248,-15412,252,1,A
1781598795082,4036,-15772,276,1,A
1781598795104,4060,-15844,184,1,A
1781598795125,4096,-15912,284,1,A
1781598795146,4012,-15900,428,1,A
1781598795168,4180,-15804,592,1,A
1781598795189,4584,-15732,624,1,A
1781598795211,4832,-15540,556,1,A
1781598795233,4836,-15444,668,1,A
1781598795254,4732,-15436,616,1,A
1781598795276,4624,-15388,572,1,A
1781598795297,4564,-15520,472,1,A
1781598795319,4136,-15696,684,1,A
1781598795341,4060,-15468,648,1,A
1781598795362,4228,-15700,584,1,A
1781598795384,4632,-15736,264,1,A
1781598795405,4804,-15268,236,1,A
1781598795427,4920,-15480,304,1,A
1781598795448,4928,-15672,340,1,A
1781598795471,4780,-15636,344,1,A
1781598795491,4376,-15596,660,1,A
1781598795513,3788,-15660,756,1,A
1781598795534,3904,-15688,692,1,A
1781598795556,4188,-15616,476,1,A
1781598795578,4468,-15720,348,1,A
1781598795599,4764,-15508,364,1,A
1781598795621,4692,-15308,292,1,A
1781598795642,4784,-15528,316,1,A
1781598795664,4568,-15668,240,1,A
1781598795686,4308,-15620,320,1,A
1781598795707,4100,-15796,560,1,A
1781598795729,4188,-15804,608,1,A
1781598795750,4300,-15880,672,1,A
1781598795772,4440,-15768,640,1,A
1781598795793,4656,-15520,548,1,A
1781598795815,4728,-15400,740,1,A
1781598795836,4784,-15284,516,1,A
1781598795858,4820,-15268,320,1,A
1781598795880,4696,-15308,304,1,A
1781598795900,4268,-15540,380,1,A
1781598795923,4236,-15556,284,1,A
1781598795944,4068,-15580,436,1,A
1781598795966,4020,-15828,568,1,A
1781598795988,4248,-15720,676,1,A
1781598796009,4692,-15764,476,1,A
1781598796031,4720,-15528,456,1,A
1781598796052,4812,-15528,544,1,A
1781598796074,4920,-15472,484,1,A
1781598796095,4780,-15472,532,1,A
1781598796116,4452,-15700,708,1,A
1781598796139,4008,-15900,880,1,A
1781598796160,3880,-15692,860,1,A
1781598796181,3920,-15728,424,1,A
1781598796203,4388,-15492,280,1,A
1781598796225,4940,-15216,164,1,A
1781598796246,5132,-15448,224,1,A
1781598796267,5020,-15624,356,1,A
1781598796289,4568,-15460,464,1,A
1781598796311,4272,-15564,704,1,A
1781598796332,4168,-15644,740,1,A
1781598796354,4092,-15708,692,1,A
1781598796375,4252,-15664,564,1,A
1781598796396,4636,-15560,540,1,A
1781598796419,4824,-15364,412,1,A
1781598796440,4692,-15332,604,1,A
1781598796461,4612,-15492,476,1,A
1781598796483,4540,-15572,480,1,A
1781598796504,4260,-15632,636,1,A
1781598796527,4156,-15676,644,1,A
1781598796548,4212,-15824,716,1,A
1781598796569,4320,-15556,628,1,A
1781598796591,4708,-15568,340,1,A
1781598796612,4888,-15512,404,1,A
1781598796634,4660,-15512,372,1,A
1781598796655,4264,-15604,580,1,A
1781598796677,4112,-15724,824,1,A
1781598796698,4012,-15788,772,1,A
1781598796721,4456,-15700,440,1,A
1781598796742,4620,-15536,416,1,A
1781598796763,4724,-15380,632,1,A
1781598796785,4816,-15280,316,1,A
1781598796807,4764,-15500,436,1,A
1781598796828,4508,-15592,532,1,A
1781598796850,4060,-15728,716,1,A
1781598796872,4032,-15816,596,1,A
1781598796893,4036,-15824,568,1,A
1781598796914,4344,-15452,512,1,A
1781598796936,4548,-15380,528,1,A
1781598796957,5092,-15748,288,1,A
1781598796979,5068,-15744,408,1,A
1781598797001,4288,-15412,944,1,A
1781598797022,4044,-15296,884,1,A
1781598797044,4376,-15824,388,1,A
1781598797065,4376,-15620,536,1,A
1781598797087,4196,-15332,436,1,A
1781598797109,4468,-15568,496,1,A
1781598797129,4724,-15592,368,1,A
1781598797152,4500,-15640,388,1,A
1781598797173,4324,-15616,364,1,A
1781598797195,4156,-15668,408,1,A
1781598797216,4164,-15740,600,1,A
1781598797238,4236,-15696,696,1,A
1781598797259,4512,-15728,616,1,A
1781598797281,4656,-15604,820,1,A
1781598797302,4752,-15440,792,1,A
1781598797324,4736,-15500,700,1,A
1781598797345,4672,-15380,588,1,A
1781598797367,4844,-15348,368,1,A
1781598797389,4148,-15400,776,1,A
1781598797410,4140,-15536,628,1,A
1781598797432,4308,-15404,604,1,A
1781598797453,4468,-15504,272,1,A
1781598797474,4420,-15584,332,1,A
1781598797497,4312,-15568,332,1,A
1781598797517,4468,-15704,300,1,A
1781598797539,4520,-15652,268,1,A
1781598797561,4648,-15760,384,1,A
1781598797582,4536,-15712,580,1,A
1781598797604,4640,-15616,760,1,A
1781598797626,4696,-15572,496,1,A
1781598797647,4628,-15644,640,1,A
1781598797669,4408,-15764,732,1,A
1781598797691,3936,-15580,820,1,A
1781598797712,4780,-15252,528,1,A
1781598797733,4736,-15388,696,1,A
1781598797754,4680,-15456,588,1,A
1781598797777,4652,-15316,476,1,A
1781598797799,4760,-15528,128,1,A
1781598797819,4368,-15348,356,1,A
1781598797841,3964,-15516,448,1,A
1781598797863,4284,-15832,272,1,A
1781598797884,4596,-16048,60,1,A
1781598797906,4248,-15728,428,1,A
1781598797927,3772,-15588,776,1,A
1781598797949,4132,-15804,660,1,A
1781598797970,4472,-15668,496,1,A
1781598797992,4600,-15572,604,1,A
1781598798014,4548,-15484,740,1,A
1781598798035,4560,-15400,640,1,A
1781598798057,4608,-15356,560,1,A
1781598798078,4448,-15432,528,1,A
1781598798100,4504,-15564,464,1,A
1781598798122,4316,-15568,412,1,A
1781598798143,4336,-15772,508,1,A
1781598798165,4252,-15744,468,1,A
1781598798187,4148,-15576,472,1,A
1781598798208,4280,-15624,432,1,A
1781598798229,4360,-15604,416,1,A
1781598798251,4388,-15704,360,1,A
1781598798272,4276,-15576,464,1,A
1781598798294,4388,-15552,536,1,A
1781598798315,4624,-15644,512,1,A
1781598798337,4608,-15576,488,1,A
1781598798359,4552,-15536,620,1,A
1781598798380,4336,-15540,652,1,A
1781598798402,4444,-15672,508,1,A
1781598798424,4688,-15656,400,1,A
1781598798445,4476,-15496,608,1,A
1781598798466,4336,-15528,660,1,A
1781598798488,4420,-15688,492,1,A
1781598798509,4460,-15656,492,1,A
1781598798532,4328,-15608,472,1,A
1781598798553,4280,-15616,540,1,A
1781598798574,4324,-15816,456,1,A
1781598798596,4184,-15584,564,1,A
1781598798617,3992,-15344,716,1,A
1781598798639,4552,-15664,432,1,A
1781598798661,4640,-15908,408,1,A
1781598798682,4524,-15528,524,1,A
1781598798704,4220,-15420,708,1,A
1781598798725,4380,-15672,676,1,A
1781598798747,4560,-15764,528,1,A
1781598798767,4564,-15660,532,1,A
1781598798789,4176,-15440,608,1,A
1781598798811,4424,-15484,676,1,A
1781598798833,4396,-15464,456,1,A
1781598798855,4280,-15564,676,1,A
1781598798876,4364,-15640,616,1,A
1781598798897,4420,-15520,408,1,A
1781598798919,4396,-15644,412,1,A
1781598798940,4288,-15640,540,1,A
1781598798962,4256,-15576,632,1,A
1781598798984,4296,-15728,596,1,A
1781598799006,4296,-15744,556,1,A
1781598799026,4304,-15548,460,1,A
1781598799048,4300,-15604,568,1,A
1781598799070,4232,-15632,740,1,A
1781598799091,4408,-15608,540,1,A
1781598799113,4504,-15548,472,1,A
1781598799135,4480,-15688,460,1,A
1781598799156,4376,-15592,632,1,A
1781598799178,4316,-15440,676,1,A
1781598799200,4436,-15568,576,1,A
1781598799220,4596,-15680,428,1,A
1781598799242,4428,-15644,504,1,A
1781598799264,4204,-15520,572,1,A
1781598799285,4124,-15736,644,1,A
1781598799307,4328,-15736,676,1,A
1781598799329,4304,-15640,604,1,A
1781598799351,4504,-15672,468,1,A
1781598799372,4492,-15616,624,1,A
1781598799393,4224,-15572,648,1,A
1781598799415,4136,-15524,580,1,A
1781598799436,4452,-15816,424,1,A
1781598799458,4524,-15800,524,1,A
1781598799479,4356,-15524,576,1,A
1781598799501,4368,-15612,640,1,A
1781598799523,4376,-15804,552,1,A
1781598799544,4572,-15660,452,1,A
1781598799565,4484,-15480,496,1,A
1781598799587,4224,-15556,708,1,A
1781598799609,4296,-15572,712,1,A
1781598799630,4404,-15664,524,1,A
1781598799652,4380,-15564,432,1,A
1781598799673,4408,-15520,536,1,A
1781598799695,4232,-15404,612,1,A
1781598799717,4332,-15772,584,1,A
1781598799739,4440,-15656,508,1,A
1781598799759,4612,-15452,572,1,A
1781598799782,4340,-15544,612,1,A
1781598799804,4468,-15708,528,1,A
1781598799824,4400,-15592,616,1,A
1781598799847,4532,-15500,668,1,A
1781598799867,4284,-15512,576,1,A
1781598799889,4576,-15588,524,1,A
1781598799911,4612,-15616,464,1,A
1781598799932,4464,-15504,532,1,A
1781598799953,4280,-15544,712,1,A
1781598799976,4176,-15596,792,1,A
1781598799997,4260,-15648,540,1,A
1781598800018,4412,-15576,400,1,A
1781598800040,4244,-15504,576,1,A
1781598800061,4076,-15552,600,1,A
1781598800084,4456,-15780,512,1,A
1781598800105,4532,-15820,524,1,A
1781598800126,4700,-15640,424,1,A
1781598800148,4364,-15460,756,1,A
1781598800169,4352,-15644,768,1,A
1781598800191,4540,-15668,628,1,A
1781598800212,4344,-15432,676,1,A
1781598800234,4624,-15544,412,1,A
1781598800256,4556,-15604,496,1,A
1781598800279,4456,-15340,576,1,A
1781598800300,4108,-15484,604,1,A
1781598800322,4480,-15740,412,1,A
1781598800344,4508,-15644,316,1,A
1781598800365,4424,-15512,416,1,A
1781598800386,4284,-15516,676,1,A
1781598800408,4368,-15548,388,1,A
1781598800430,4380,-15644,556,1,A
1781598800451,4208,-15604,664,1,A
1781598800473,4176,-15632,740,1,A
1781598800495,4232,-15464,592,1,A
1781598800516,4500,-15784,488,1,A
1781598800537,4668,-15648,496,1,A
1781598800559,4612,-15404,560,1,A
1781598800581,4568,-15428,640,1,A
1781598800602,4152,-15688,792,1,A
1781598800623,4332,-15700,500,1,A
1781598800645,4104,-15624,500,1,A
1781598800667,4260,-15552,372,1,A
1781598800688,4348,-15648,444,1,A
1781598800710,4392,-15692,516,1,A
1781598800732,4368,-15560,656,1,A
1781598800753,4348,-15628,572,1,A
1781598800774,4420,-15632,360,1,A
1781598800796,4292,-15696,504,1,A
1781598800817,4232,-15592,660,1,A
1781598800839,4352,-15516,460,1,A
1781598800860,4236,-15728,500,1,A
1781598800882,4320,-15748,496,1,A
1781598800903,4324,-15532,496,1,A
1781598800925,4484,-15576,416,1,A
1781598800947,4416,-15580,544,1,A
1781598800969,4284,-15660,684,1,A
1781598800990,4196,-15496,696,1,A
1781598801012,4360,-15820,712,1,A
1781598801034,4220,-15644,732,1,A
1781598801054,4096,-15536,704,1,A
1781598801077,4160,-15692,724,1,A
1781598801098,4336,-15716,584,1,A
1781598801120,4320,-15560,536,1,A
1781598801141,4424,-15564,716,1,A
1781598801163,4448,-15512,644,1,A
1781598801184,4476,-15616,560,1,A
1781598801206,4376,-15664,576,1,A
1781598801227,4392,-15644,496,1,A
1781598801249,4212,-15532,576,1,A
1781598801270,4148,-15544,576,1,A
1781598801292,4240,-15624,424,1,A
1781598801314,4444,-15536,308,1,A
1781598801336,4504,-15552,348,1,A
1781598801357,4176,-15812,688,1,A
1781598801378,4212,-15600,620,1,A
1781598801399,4180,-15516,636,1,A
1781598801421,4348,-15684,568,1,A
1781598801443,4604,-15796,512,1,A
1781598801465,4628,-15660,492,1,A
1781598801486,4316,-15600,584,1,A
1781598801508,4388,-15624,576,1,A
1781598801529,4260,-15500,608,1,A
1781598801550,4412,-15648,672,1,A
1781598801572,4716,-15676,684,1,A
1781598801594,4408,-15680,816,1,A
1781598801615,4056,-15612,764,1,A
1781598801637,4244,-15564,568,1,A
1781598801658,4184,-15608,668,1,A
1781598801680,4552,-15636,392,1,A
1781598801701,4424,-15660,524,1,A
1781598801723,4420,-15600,352,1,A
1781598801744,4100,-15656,628,1,A
1781598801766,3964,-15488,604,1,A
1781598801788,4148,-15444,272,1,A
1781598801809,4448,-15880,100,1,A
1781598801831,4368,-15588,276,1,A
1781598801853,4116,-15516,412,1,A
1781598801875,4260,-15608,540,1,A
1781598801896,4488,-15836,456,1,A
1781598801917,4372,-16016,476,1,A
1781598801940,5372,-15944,300,1,A
1781598801961,4024,-15888,1028,1,A
1781598801982,4080,-15304,1364,1,A
1781598802004,4292,-15300,1040,1,A
1781598802025,4744,-15576,576,1,A
1781598802046,4732,-15524,476,1,A
1781598802068,4368,-15288,636,1,A
1781598802090,4392,-15488,600,1,A
1781598802111,4472,-15484,412,1,A
1781598802134,4204,-15612,456,1,A
1781598802155,4084,-15668,544,1,A
1781598802176,4248,-15760,460,1,A
1781598802197,4408,-15864,416,1,A
1781598802220,4012,-15796,672,1,A
1781598802240,4092,-15640,632,1,A
1781598802262,4292,-15432,636,1,A
1781598802284,4372,-15640,428,1,A
1781598802305,4392,-15812,552,1,A
1781598802327,4512,-15568,428,1,A
1781598802349,4376,-15408,612,1,A
1781598802370,4376,-15484,548,1,A
1781598802392,4480,-15560,416,1,A
1781598802413,4300,-15664,672,1,A
1781598802434,4292,-15652,540,1,A
1781598802456,4632,-15476,440,1,A
1781598802478,4492,-15568,484,1,A
1781598802499,4612,-15812,636,1,A
1781598802520,4584,-15852,592,1,A
1781598802542,4348,-15608,764,1,A
1781598802564,4120,-15484,804,1,A
1781598802586,4444,-15680,780,1,A
1781598802607,4252,-15712,792,1,A
1781598802629,4200,-15428,900,1,A
1781598802650,4448,-15656,624,1,A
1781598802672,4556,-15700,464,1,A
1781598802693,4428,-15376,544,1,A
1781598802715,4240,-15412,612,1,A
1781598802736,4512,-15760,472,1,A
1781598802758,4596,-15680,356,1,A
1781598802779,4444,-15532,372,1,A
1781598802801,4320,-15480,516,1,A
1781598802822,4560,-15372,404,1,A
1781598802845,4612,-15604,504,1,A
1781598802866,4508,-15660,484,1,A
1781598802888,4200,-15752,568,1,A
1781598802909,4280,-15612,728,1,A
1781598802930,4580,-15460,624,1,A
1781598802952,4484,-15688,648,1,A
1781598802974,4820,-15604,488,1,A
1781598802996,4720,-15620,584,1,A
1781598803017,4332,-15540,940,1,A
1781598803038,4472,-15496,772,1,A
1781598803060,4408,-15532,692,1,A
1781598803081,4500,-15604,468,1,A
1781598803103,4524,-15408,536,1,A
1781598803124,4384,-15500,460,1,A
1781598803146,4284,-15628,720,1,A
1781598803168,4264,-15616,492,1,A
1781598803189,4020,-15640,460,1,A
1781598803211,4604,-15652,132,1,A
1781598803232,4476,-15668,356,1,A
1781598803254,4148,-15544,540,1,A
1781598803276,4428,-15672,512,1,A
1781598803297,4712,-15668,344,1,A
1781598803319,4676,-15572,312,1,A
1781598803340,4616,-15420,540,1,A
1781598803361,4432,-15432,508,1,A
1781598803383,4580,-15632,204,1,A
1781598803404,4656,-15612,192,1,A
1781598803426,4264,-15304,644,1,A
1781598803448,4148,-15392,696,1,A
1781598803470,4484,-15836,444,1,A
1781598803491,4668,-15840,264,1,A
1781598803513,4396,-15520,484,1,A
1781598803534,4220,-15552,732,1,A
1781598803555,4392,-15696,724,1,A
1781598803577,4472,-15680,568,1,A
1781598803599,4488,-15584,680,1,A
1781598803620,4500,-15392,724,1,A
1781598803642,4256,-15576,664,1,A
1781598803664,4432,-15616,532,1,A
1781598803685,4352,-15568,392,1,A
1781598803706,4408,-15436,324,1,A
1781598803728,4400,-15572,356,1,A
1781598803750,4404,-15680,308,1,A
1781598803770,4428,-15596,276,1,A
1781598803793,4416,-15604,344,1,A
1781598803814,4312,-15540,440,1,A
1781598803836,4436,-15756,344,1,A
1781598803857,4476,-15600,300,1,A
1781598803879,4240,-15548,524,1,A
1781598803901,4412,-15608,668,1,A
1781598803922,4696,-15684,544,1,A
1781598803943,4616,-15632,668,1,A
1781598803966,4628,-15604,688,1,A
1781598803987,4572,-15616,688,1,A
1781598804009,4628,-15508,728,1,A
1781598804030,4748,-15516,656,1,A
1781598804051,4720,-15556,692,1,A
1781598804073,4692,-15452,636,1,A
1781598804094,4564,-15488,484,1,A
1781598804116,4484,-15492,428,1,A
1781598804138,4264,-15476,520,1,A
1781598804160,4076,-15560,460,1,A
1781598804180,4308,-15700,404,1,A
1781598804202,4288,-15632,224,1,A
1781598804224,4068,-15500,256,1,A
1781598804246,4260,-15796,228,1,A
1781598804267,4388,-15908,288,1,A
1781598804288,4384,-15668,464,1,A
1781598804311,4432,-15696,612,1,A
1781598804331,4516,-15648,700,1,A
1781598804354,4540,-15632,560,1,A
1781598804375,4628,-15616,576,1,A
1781598804396,4652,-15380,540,1,A
1781598804418,4660,-15484,584,1,A
1781598804440,4760,-15504,588,1,A
1781598804461,4564,-15588,676,1,A
1781598804482,4592,-15460,620,1,A
1781598804504,4476,-15508,916,1,A
1781598804526,4472,-15704,680,1,A
1781598804548,4448,-15532,516,1,A
1781598804569,4664,-15592,88,1,A
1781598804590,4388,-15560,456,1,A
1781598804612,4076,-15692,544,1,A
1781598804633,4168,-15672,324,1,A
1781598804655,4304,-15504,308,1,A
1781598804677,4408,-15552,296,1,A
1781598804698,4352,-15760,288,1,A
1781598804720,4424,-15760,256,1,A
1781598804742,4320,-15712,488,1,A
1781598804763,4480,-15576,528,1,A
1781598804784,4552,-15504,612,1,A
1781598804806,4608,-15652,620,1,A
1781598804828,4672,-15616,452,1,A
1781598804849,4600,-15504,416,1,A
1781598804870,4476,-15472,700,1,A
1781598804892,4588,-15556,552,1,A
1781598804914,4700,-15656,552,1,A
1781598804936,4624,-15540,508,1,A
1781598804957,4508,-15492,660,1,A
1781598804979,4412,-15552,616,1,A
1781598805001,4568,-15748,592,1,A
1781598805022,4536,-15648,488,1,A
1781598805044,4312,-15420,868,1,A
1781598805065,4148,-15380,784,1,A
1781598805087,4464,-15888,464,1,A
1781598805108,4592,-15644,392,1,A
1781598805130,4188,-15396,696,1,A
1781598805150,4024,-15664,724,1,A
1781598805172,4320,-15812,488,1,A
1781598805195,4592,-15704,336,1,A
1781598805216,4336,-15536,568,1,A
1781598805237,4276,-15436,536,1,A
1781598805258,4412,-15572,560,1,A
1781598805281,4664,-15520,236,1,A
1781598805302,4544,-15636,388,1,A
1781598805324,4464,-15496,496,1,A
1781598805345,4224,-15424,600,1,A
1781598805366,4468,-15756,580,1,A
1781598805388,4660,-15692,456,1,A
1781598805410,4588,-15588,564,1,A
1781598805431,4448,-15620,808,1,A
1781598805452,4520,-15688,732,1,A
1781598805474,4600,-15728,652,1,A
1781598805495,4532,-15552,748,1,A
1781598805517,4356,-15508,792,1,A
1781598805539,4556,-15436,584,1,A
1781598805561,4596,-15536,500,1,A
1781598805582,4284,-15504,588,1,A
1781598805604,4256,-15512,568,1,A
1781598805626,4232,-15616,532,1,A
1781598805647,4388,-15712,340,1,A
1781598805668,4148,-15644,408,1,A
1781598805689,4208,-15712,500,1,A
1781598805712,4264,-15656,392,1,A
1781598805734,4384,-15752,588,1,A
1781598805755,4360,-15680,436,1,A
1781598805777,4608,-15632,376,1,A
1781598805798,4404,-15468,512,1,A
1781598805819,4308,-15636,648,1,A
1781598805840,4600,-15532,448,1,A
1781598805862,4580,-15492,528,1,A
1781598805884,4604,-15444,584,1,A
1781598805905,4712,-15632,460,1,A
1781598805927,4512,-15544,544,1,A
1781598805949,4256,-15412,856,1,A
1781598805971,4500,-15504,660,1,A
