timestamp,ax,ay,az,label,subject_id
1781598933052,312,-16324,1332,2,A
1781598933053,208,-15928,1340,2,A
1781598933053,368,-16264,1432,2,A
1781598933054,128,-16596,1912,2,A
1781598933055,620,-15984,1552,2,A
1781598933055,944,-16412,1320,2,A
1781598933056,824,-16328,1272,2,A
1781598933057,44,-16428,1732,2,A
1781598933057,332,-16180,1104,2,A
1781598933058,140,-16180,1592,2,A
1781598933059,-284,-16248,1928,2,A
1781598933059,-1980,-17148,2432,2,A
1781598933060,1528,-13620,-156,2,A
1781598933061,1144,-15624,864,2,A
1781598933061,104,-16800,2276,2,A
1781598933062,1172,-16612,1204,2,A
1781598933062,864,-16368,1384,2,A
1781598933063,348,-16456,1692,2,A
1781598933064,836,-16396,1256,2,A
1781598933064,940,-16152,1348,2,A
1781598933065,300,-16216,1968,2,A
1781598933066,696,-16304,1564,2,A
1781598933067,980,-16028,1484,2,A
1781598933067,1404,-16032,1256,2,A
1781598933068,1348,-15904,1252,2,A
1781598933068,692,-16176,1816,2,A
1781598933068,1420,-16040,1320,2,A
1781598933070,1648,-16112,1132,2,A
1781598933070,1476,-15920,1052,2,A
1781598933071,1184,-16208,1628,2,A
1781598933071,1300,-16156,1504,2,A
1781598933071,1352,-16040,1372,2,A
1781598933072,1248,-16324,1496,2,A
1781598933072,1516,-16172,1200,2,A
1781598933073,992,-16256,1760,2,A
1781598933073,1204,-16124,1216,2,A
1781598933074,1028,-16352,1280,2,A
1781598933074,360,-16660,2276,2,A
1781598933075,216,-16012,1868,2,A
1781598933076,444,-16024,1512,2,A
1781598933076,940,-15892,1232,2,A
1781598933077,672,-16196,1592,2,A
1781598933077,788,-16372,1316,2,A
1781598933078,748,-16444,1252,2,A
1781598933079,704,-16360,1140,2,A
1781598933079,584,-16268,1340,2,A
1781598933080,468,-16320,1580,2,A
1781598933081,988,-16188,1316,2,A
1781598933082,1140,-16228,1248,2,A
1781598933082,56,-17232,2268,2,A
1781598933082,816,-16340,1468,2,A
1781598933084,908,-16048,1168,2,A
1781598933085,560,-16176,1620,2,A
1781598933086,480,-16044,1840,2,A
1781598933086,572,-16560,1268,2,A
1781598933087,1188,-16096,744,2,A
1781598933087,852,-16300,1192,2,A
1781598933087,964,-16040,1244,2,A
1781598933088,584,-16032,1340,2,A
1781598933089,924,-16232,880,2,A
1781598933089,760,-16336,1176,2,A
1781598933089,628,-16380,1396,2,A
1781598933090,524,-15880,1416,2,A
1781598933091,480,-15880,1364,2,A
1781598933091,1100,-16500,1324,2,A
1781598933092,828,-16492,1708,2,A
1781598933092,812,-16328,1460,2,A
1781598933093,1040,-15916,932,2,A
1781598933093,764,-16032,1200,2,A
1781598933093,540,-16236,1332,2,A
1781598933094,436,-16208,1352,2,A
1781598933095,724,-16124,1020,2,A
1781598933097,716,-16276,1116,2,A
1781598933097,488,-16468,1660,2,A
1781598933098,740,-16260,1496,2,A
1781598933098,700,-16132,1308,2,A
1781598933099,984,-16360,1268,2,A
1781598933099,584,-16340,1656,2,A
1781598933100,540,-16268,1620,2,A
1781598933100,952,-16228,1168,2,A
1781598933101,576,-16200,1412,2,A
1781598933101,212,-16364,1700,2,A
1781598933102,608,-16220,1220,2,A
1781598933103,780,-16068,1040,2,A
1781598933104,876,-16084,1120,2,A
1781598933104,324,-16348,1684,2,A
1781598933105,620,-16228,1344,2,A
1781598933105,896,-16044,1104,2,A
1781598933106,572,-16312,1524,2,A
1781598933106,376,-16372,1824,2,A
1781598933107,708,-16348,1424,2,A
1781598933107,660,-16100,1284,2,A
1781598933108,540,-16116,1388,2,A
1781598933108,512,-16276,1508,2,A
1781598933108,488,-16112,1500,2,A
1781598933113,608,-15944,1376,2,A
1781598933135,628,-16572,1456,2,A
1781598933156,864,-16788,1376,2,A
1781598933178,708,-16112,1384,2,A
1781598933200,452,-15912,1524,2,A
1781598933222,500,-16164,1504,2,A
1781598933242,620,-16376,1380,2,A
1781598933265,748,-16124,1244,2,A
1781598933286,576,-16212,1476,2,A
1781598933308,424,-16344,1576,2,A
1781598933329,528,-16336,1432,2,A
1781598933351,468,-16280,1528,2,A
1781598933373,516,-16316,1408,2,A
1781598933393,412,-16032,1264,2,A
1781598933416,348,-16160,1464,2,A
1781598933438,524,-16268,1264,2,A
1781598933458,460,-16404,1548,2,A
1781598933481,428,-16476,1660,2,A
1781598933502,92,-16012,1732,2,A
1781598933523,596,-16144,1376,2,A
1781598933546,560,-16416,1532,2,A
1781598933567,928,-16392,1344,2,A
1781598933588,720,-16080,1296,2,A
1781598933609,632,-16256,1280,2,A
1781598933631,588,-16168,1428,2,A
1781598933653,656,-16356,1404,2,A
1781598933675,576,-16192,1424,2,A
1781598933696,348,-16268,1416,2,A
1781598933717,868,-16504,1108,2,A
1781598933738,524,-16428,1452,2,A
1781598933760,288,-16140,1668,2,A
1781598933782,468,-16128,1344,2,A
1781598933803,580,-16108,1308,2,A
1781598933825,620,-16376,1400,2,A
1781598933847,360,-16360,1516,2,A
1781598933868,544,-16204,1220,2,A
1781598933890,512,-16028,1264,2,A
1781598933911,408,-16176,1484,2,A
1781598933932,512,-16336,1540,2,A
1781598933955,808,-16256,1204,2,A
1781598933976,920,-16068,1044,2,A
1781598933998,496,-16248,1508,2,A
1781598934019,560,-16336,1540,2,A
1781598934041,452,-16256,1356,2,A
1781598934062,716,-16164,1272,2,A
1781598934084,776,-16260,1328,2,A
1781598934105,632,-16500,1412,2,A
1781598934127,584,-16340,1408,2,A
1781598934148,604,-16016,1276,2,A
1781598934170,760,-16044,1144,2,A
1781598934192,824,-16404,1320,2,A
1781598934213,664,-16628,1432,2,A
1781598934235,448,-16192,1572,2,A
1781598934256,676,-15928,1144,2,A
1781598934278,692,-16304,1228,2,A
1781598934300,744,-16380,1372,2,A
1781598934320,512,-16320,1524,2,A
1781598934342,612,-16020,1436,2,A
1781598934364,320,-16180,1560,2,A
1781598934385,524,-16396,1652,2,A
1781598934407,820,-16288,1340,2,A
1781598934429,816,-16040,1120,2,A
1781598934450,408,-15732,1528,2,A
1781598934471,456,-16028,1500,2,A
1781598934493,632,-16264,1380,2,A
1781598934515,620,-16396,1540,2,A
1781598934536,304,-16168,1708,2,A
1781598934558,476,-16124,1524,2,A
1781598934580,832,-17468,2056,2,A
1781598934601,620,-16844,1684,2,A
1781598934623,1552,-16992,1200,2,A
1781598934645,120,-16152,1780,2,A
1781598934666,108,-15252,1780,2,A
1781598934688,168,-16208,1876,2,A
1781598934708,312,-16600,1900,2,A
1781598934730,1060,-16632,868,2,A
1781598934752,416,-16196,1620,2,A
1781598934774,436,-16024,1576,2,A
1781598934795,272,-16320,1716,2,A
1781598934816,300,-16252,1532,2,A
1781598934839,372,-16136,1616,2,A
1781598934860,84,-16328,1976,2,A
1781598934881,416,-16464,1768,2,A
1781598934903,224,-16168,1860,2,A
1781598934924,-8,-16004,2056,2,A
1781598934946,-40,-16020,1980,2,A
1781598934968,404,-16196,1588,2,A
1781598934989,588,-16312,1404,2,A
1781598935012,424,-16220,1700,2,A
1781598935033,-148,-16052,2004,2,A
1781598935054,328,-15916,1668,2,A
1781598935076,784,-16300,1300,2,A
1781598935098,628,-16384,1748,2,A
1781598935119,500,-16456,1936,2,A
1781598935140,188,-16084,2004,2,A
1781598935162,368,-16076,1612,2,A
1781598935183,716,-16192,1408,2,A
1781598935205,108,-16468,1956,2,A
1781598935227,120,-16432,2028,2,A
1781598935248,556,-16144,1588,2,A
1781598935270,452,-16056,1752,2,A
1781598935291,412,-16308,1932,2,A
1781598935312,456,-16284,1768,2,A
1781598935334,732,-16060,1540,2,A
1781598935356,296,-16176,1744,2,A
1781598935378,356,-16300,1804,2,A
1781598935399,416,-16388,1708,2,A
1781598935420,552,-16260,1464,2,A
1781598935442,392,-16040,1604,2,A
1781598935464,240,-16284,1980,2,A
1781598935486,372,-16260,1756,2,A
1781598935506,508,-16084,1512,2,A
1781598935529,460,-16200,1648,2,A
1781598935550,316,-16280,1920,2,A
1781598935572,236,-16304,1960,2,A
1781598935594,644,-16092,1532,2,A
1781598935614,568,-16124,1624,2,A
1781598935636,100,-16196,1844,2,A
1781598935658,264,-16052,1876,2,A
1781598935679,272,-16252,1684,2,A
1781598935701,316,-16228,1808,2,A
1781598935722,532,-16168,1520,2,A
1781598935744,464,-16212,1684,2,A
1781598935766,648,-16220,1512,2,A
1781598935787,564,-16232,1688,2,A
1781598935808,496,-16312,1776,2,A
1781598935830,436,-16100,1660,2,A
1781598935851,484,-16424,1572,2,A
1781598935874,768,-16092,1408,2,A
1781598935894,308,-16296,1804,2,A
1781598935917,192,-16204,2056,2,A
1781598935938,356,-16088,1756,2,A
1781598935959,436,-16164,1664,2,A
1781598935981,396,-16160,1900,2,A
1781598936002,284,-16180,1972,2,A
1781598936024,300,-16208,1768,2,A
1781598936045,636,-16308,1616,2,A
1781598936067,336,-15980,1712,2,A
1781598936088,0,-15944,1956,2,A
1781598936110,160,-16144,1780,2,A
1781598936132,272,-16540,1712,2,A
1781598936154,264,-16220,1776,2,A
1781598936175,12,-16120,2180,2,A
1781598936197,228,-16284,1812,2,A
1781598936218,260,-16188,1716,2,A
1781598936240,-104,-16248,2092,2,A
1781598936261,464,-16200,1644,2,A
1781598936283,260,-16308,1780,2,A
1781598936305,820,-16112,1188,2,A
1781598936326,848,-16168,1276,2,A
1781598936348,-180,-16284,2160,2,A
1781598936369,-92,-16360,2000,2,A
1781598936391,100,-16236,1816,2,A
1781598936412,44,-16024,2088,2,A
1781598936434,408,-16144,1736,2,A
1781598936455,720,-16068,1588,2,A
1781598936478,572,-16184,1676,2,A
1781598936499,752,-16264,1716,2,A
1781598936520,392,-16224,1836,2,A
1781598936542,704,-16148,1460,2,A
1781598936563,856,-16116,1440,2,A
1781598936585,516,-16212,1736,2,A
1781598936606,524,-16248,1768,2,A
1781598936628,476,-16288,1848,2,A
1781598936649,844,-16164,1348,2,A
1781598936672,904,-16420,1360,2,A
1781598936693,268,-16228,1820,2,A
1781598936715,1440,-16176,1228,2,A
1781598936736,1060,-16124,1380,2,A
1781598936757,1212,-16220,1396,2,A
1781598936779,1476,-16380,992,2,A
1781598936800,1364,-16248,1140,2,A
1781598936823,1152,-16032,1392,2,A
1781598936844,1004,-16104,1392,2,A
1781598936867,1308,-16400,1236,2,A
1781598936888,760,-16452,1632,2,A
1781598936910,-156,-16280,2216,2,A
1781598936932,652,-15896,1376,2,A
1781598936954,388,-16148,1828,2,A
1781598936975,792,-15832,1496,2,A
1781598936996,972,-16364,1480,2,A
1781598937018,1372,-16312,1124,2,A
1781598937040,1344,-16144,1092,2,A
1781598937061,1108,-16048,1272,2,A
1781598937082,492,-16352,1856,2,A
1781598937104,1156,-16072,1180,2,A
1781598937126,1268,-16064,1128,2,A
1781598937147,1372,-16232,1288,2,A
1781598937169,1184,-16532,1352,2,A
1781598937191,1204,-16016,1144,2,A
1781598937212,744,-16048,1624,2,A
1781598937234,1024,-16144,1288,2,A
1781598937256,1396,-16280,1128,2,A
1781598937278,1392,-16028,1080,2,A
1781598937299,1072,-16072,1324,2,A
1781598937320,876,-16212,1472,2,A
1781598937343,1412,-16388,1064,2,A
1781598937364,1496,-16132,976,2,A
1781598937385,1300,-16396,1076,2,A
1781598937406,1568,-16104,928,2,A
1781598937428,1096,-16172,1336,2,A
1781598937450,1136,-16256,1304,2,A
1781598937470,1088,-16280,1380,2,A
1781598937492,1176,-16116,1224,2,A
1781598937514,1380,-16236,1124,2,A
1781598937535,1252,-16136,1068,2,A
1781598937557,1404,-16228,1044,2,A
1781598937579,1140,-16244,1340,2,A
1781598937601,892,-16216,1544,2,A
1781598937622,1380,-15704,940,2,A
1781598937643,1180,-16228,1200,2,A
1781598937665,1304,-16396,1184,2,A
1781598937687,1100,-16468,1352,2,A
1781598937708,1080,-16064,1192,2,A
1781598937730,1312,-15900,1240,2,A
1781598937751,1156,-16128,1280,2,A
1781598937773,1576,-16416,996,2,A
1781598937795,1316,-16372,1180,2,A
1781598937816,1072,-16200,1360,2,A
1781598937837,1176,-16156,1204,2,A
1781598937859,1384,-16300,832,2,A
1781598937880,1268,-16248,1084,2,A
1781598937902,1328,-16312,924,2,A
1781598937924,888,-16120,1436,2,A
1781598937946,1068,-16080,1248,2,A
1781598937968,1548,-16316,840,2,A
1781598937989,1720,-16516,808,2,A
1781598938010,1428,-16392,1160,2,A
1781598938032,1164,-16064,1200,2,A
1781598938053,832,-15980,1316,2,A
1781598938076,1276,-16164,1028,2,A
1781598938097,1568,-16668,896,2,A
1781598938118,1472,-16968,1460,2,A
1781598938140,1176,-16400,1236,2,A
1781598938162,1228,-16036,904,2,A
1781598938183,1324,-16144,948,2,A
1781598938205,1304,-16184,1024,2,A
1781598938226,1280,-16168,988,2,A
1781598938249,1032,-16104,1236,2,A
1781598938270,1332,-16084,824,2,A
1781598938290,1228,-16288,1080,2,A
1781598938313,1072,-16432,1280,2,A
1781598938335,1072,-16152,1012,2,A
1781598938355,1368,-16028,664,2,A
1781598938377,1324,-16212,836,2,A
1781598938399,648,-16492,1492,2,A
1781598938421,1252,-15844,936,2,A
1781598938442,1464,-16300,712,2,A
1781598938463,1432,-16376,1064,2,A
1781598938486,1252,-16196,1100,2,A
1781598938507,1112,-16132,1184,2,A
1781598938528,1448,-16212,932,2,A
1781598938550,1172,-16352,1100,2,A
1781598938572,1452,-16112,1060,2,A
1781598938593,924,-16048,1184,2,A
1781598938615,1300,-16208,860,2,A
1781598938637,1288,-16388,1068,2,A
1781598938659,1156,-16372,1284,2,A
1781598938680,1316,-20196,2516,2,A
1781598938701,1172,-16500,1212,2,A
1781598938723,1444,-15552,1044,2,A
1781598938744,1176,-16152,1140,2,A
1781598938767,1100,-16032,1156,2,A
1781598938788,760,-16020,1364,2,A
1781598938810,1036,-16148,1168,2,A
1781598938831,1056,-16332,1252,2,A
1781598938852,1052,-16328,1240,2,A
1781598938874,1300,-16204,940,2,A
1781598938895,1300,-16132,988,2,A
1781598938917,996,-16260,1376,2,A
1781598938939,1088,-16400,1296,2,A
1781598938960,912,-16208,1316,2,A
1781598938982,1252,-16084,968,2,A
1781598939004,1116,-16136,1204,2,A
1781598939026,696,-16396,1504,2,A
1781598939047,996,-16156,1084,2,A
1781598939068,1092,-16024,940,2,A
1781598939090,1264,-16216,1156,2,A
1781598939112,792,-16472,1556,2,A
1781598939133,908,-16228,1460,2,A
1781598939155,1136,-16024,1084,2,A
1781598939176,1132,-16272,1068,2,A
1781598939197,1120,-16380,1216,2,A
1781598939220,788,-16196,1552,2,A
1781598939240,1032,-15872,1068,2,A
1781598939263,1488,-16300,756,2,A
1781598939285,1064,-16520,1360,2,A
1781598939306,1008,-16272,1432,2,A
1781598939328,940,-16068,1296,2,A
1781598939350,1092,-15960,1116,2,A
1781598939371,1224,-16476,1304,2,A
1781598939392,1032,-16468,1404,2,A
1781598939414,1056,-16056,1068,2,A
1781598939436,784,-15964,1252,2,A
1781598939457,896,-16184,1244,2,A
1781598939479,848,-16136,1268,2,A
1781598939500,1016,-16204,1252,2,A
1781598939522,1128,-16332,1228,2,A
1781598939545,1044,-16288,1364,2,A
1781598939565,880,-16136,1556,2,A
1781598939587,840,-16120,1268,2,A
1781598939608,1052,-16228,1136,2,A
1781598939630,988,-16336,1452,2,A
1781598939652,704,-16436,1488,2,A
1781598939674,820,-16240,1380,2,A
1781598939695,988,-16088,1036,2,A
1781598939716,964,-16116,1112,2,A
1781598939738,1000,-16192,1200,2,A
1781598939760,1120,-16188,1204,2,A
1781598939781,1132,-16756,1272,2,A
1781598939802,2364,-17840,572,2,A
1781598939824,1660,-15864,756,2,A
1781598939846,164,-14044,980,2,A
1781598939867,456,-15712,1572,2,A
1781598939889,736,-15908,1652,2,A
1781598939910,784,-16360,1552,2,A
1781598939932,940,-16184,1416,2,A
1781598939954,896,-16364,1480,2,A
1781598939975,908,-16332,1484,2,A
1781598939997,780,-16292,1464,2,A
1781598940018,736,-16120,1336,2,A
1781598940040,424,-16124,1588,2,A
1781598940061,548,-16248,1560,2,A
1781598940084,764,-16240,1508,2,A
1781598940105,900,-16392,1504,2,A
1781598940126,772,-16244,1528,2,A
1781598940148,716,-16124,1368,2,A
1781598940169,652,-16176,1400,2,A
1781598940191,660,-16448,1520,2,A
1781598940212,568,-16292,1448,2,A
1781598940234,644,-16092,1368,2,A
1781598940255,760,-16048,1404,2,A
1781598940276,644,-16236,1520,2,A
1781598940298,796,-16492,1420,2,A
1781598940320,744,-16080,1404,2,A
1781598940340,580,-16112,1564,2,A
1781598940363,684,-16276,1496,2,A
1781598940384,940,-16288,1208,2,A
1781598940405,652,-16184,1468,2,A
1781598940428,576,-16184,1484,2,A
1781598940449,640,-16232,1488,2,A
1781598940470,748,-16404,1540,2,A
1781598940492,676,-16224,1392,2,A
1781598940514,544,-16356,1652,2,A
1781598940535,876,-16156,1304,2,A
1781598940557,788,-16456,1404,2,A
1781598940579,568,-16192,1504,2,A
1781598940601,704,-16152,1372,2,A
1781598940622,752,-16128,1352,2,A
1781598940643,588,-16196,1596,2,A
1781598940665,612,-16180,1444,2,A
1781598940686,792,-16284,1404,2,A
1781598940708,824,-16460,1400,2,A
1781598940730,764,-16184,1488,2,A
1781598940751,720,-16168,1432,2,A
1781598940773,560,-16144,1504,2,A
1781598940795,568,-16056,1496,2,A
1781598940815,640,-16360,1436,2,A
1781598940838,788,-16380,1296,2,A
1781598940859,900,-16108,1316,2,A
1781598940881,668,-16188,1568,2,A
1781598940902,864,-16124,1436,2,A
1781598940924,780,-16080,1484,2,A
1781598940946,700,-16116,1424,2,A
1781598940967,732,-16372,1444,2,A
1781598940988,892,-16464,1352,2,A
1781598941010,592,-16164,1616,2,A
1781598941032,496,-16004,1744,2,A
1781598941053,640,-16024,1552,2,A
1781598941075,760,-16552,1416,2,A
1781598941097,1036,-16304,1260,2,A
1781598941118,864,-16240,1328,2,A
1781598941139,688,-16240,1464,2,A
1781598941161,692,-16348,1296,2,A
1781598941183,644,-16144,1420,2,A
1781598941204,696,-16100,1532,2,A
1781598941226,700,-16388,1476,2,A
1781598941247,840,-16212,1344,2,A
1781598941269,724,-16200,1508,2,A
1781598941290,496,-16340,1752,2,A
1781598941311,756,-16240,1324,2,A
1781598941334,788,-16280,1308,2,A
1781598941355,592,-16168,1580,2,A
1781598941376,628,-16364,1496,2,A
1781598941398,560,-16240,1620,2,A
1781598941420,652,-16064,1428,2,A
1781598941441,812,-16204,1448,2,A
1781598941462,700,-16244,1552,2,A
1781598941484,560,-16312,1656,2,A
1781598941506,592,-16104,1524,2,A
1781598941527,588,-16172,1604,2,A
1781598941550,680,-16388,1492,2,A
1781598941571,560,-16332,1476,2,A
1781598941592,608,-16064,1472,2,A
1781598941613,272,-15924,1572,2,A
1781598941635,332,-16352,1716,2,A
1781598941657,796,-16300,1408,2,A
1781598941677,868,-16224,1228,2,A
1781598941700,644,-16164,1520,2,A
1781598941722,636,-16040,1448,2,A
1781598941743,768,-16268,1264,2,A
1781598941764,760,-16328,1444,2,A
1781598941785,728,-16224,1480,2,A
1781598941808,744,-16220,1416,2,A
1781598941829,704,-16220,1568,2,A
1781598941851,600,-16288,1584,2,A
1781598941873,652,-16144,1412,2,A
1781598941894,776,-16200,1336,2,A
1781598941915,676,-16156,1424,2,A
1781598941938,512,-16380,1712,2,A
1781598941959,860,-16208,1164,2,A
1781598941980,844,-16232,1308,2,A
1781598942002,560,-15968,1532,2,A
1781598942024,496,-16128,1676,2,A
1781598942045,620,-16144,1428,2,A
1781598942066,760,-16252,1404,2,A
1781598942088,664,-16444,1392,2,A
1781598942109,300,-16208,1868,2,A
1781598942131,532,-16016,1360,2,A
1781598942153,836,-16168,1244,2,A
1781598942174,504,-16408,1760,2,A
1781598942196,452,-16316,1680,2,A
1781598942218,776,-16160,1392,2,A
1781598942239,564,-16124,1516,2,A
1781598942260,764,-16236,1504,2,A
1781598942282,440,-16116,1684,2,A
1781598942304,756,-16060,1388,2,A
1781598942325,688,-16132,1444,2,A
1781598942346,700,-16312,1520,2,A
1781598942368,560,-16344,1712,2,A
1781598942389,796,-15976,1148,2,A
1781598942411,648,-16128,1380,2,A
1781598942432,420,-16248,1576,2,A
1781598942454,628,-16440,1624,2,A
1781598942476,904,-16212,1204,2,A
1781598942497,836,-16220,1324,2,A
1781598942519,612,-16192,1668,2,A
1781598942541,556,-16160,1572,2,A
1781598942562,792,-16056,1296,2,A
1781598942583,672,-16336,1548,2,A
1781598942605,572,-16416,1476,2,A
1781598942628,548,-16204,1528,2,A
1781598942650,684,-16060,1344,2,A
1781598942670,756,-16212,1500,2,A
1781598942691,464,-16212,1560,2,A
1781598942713,520,-16124,1748,2,A
1781598942736,620,-16228,1436,2,A
1781598942758,920,-16276,1216,2,A
1781598942778,660,-16400,1512,2,A
1781598942801,580,-16292,1500,2,A
1781598942822,404,-16060,1612,2,A
1781598942844,672,-16136,1404,2,A
1781598942865,736,-16308,1300,2,A
1781598942887,672,-16256,1476,2,A
1781598942908,644,-16128,1480,2,A
1781598942930,528,-16140,1628,2,A
1781598942952,768,-16320,1548,2,A
1781598942974,640,-16272,1636,2,A
1781598942995,756,-16100,1508,2,A
1781598943016,624,-16080,1620,2,A
1781598943038,528,-16296,1580,2,A
1781598943060,808,-16348,1444,2,A
1781598943082,716,-16004,1364,2,A
1781598943102,732,-16176,1400,2,A
1781598943124,452,-16344,1744,2,A
1781598943145,512,-16200,1636,2,A
1781598943168,808,-16140,1460,2,A
1781598943189,724,-16344,1456,2,A
1781598943210,540,-16428,1700,2,A
1781598943232,260,-16268,1844,2,A
1781598943255,436,-16244,1684,2,A
1781598943275,684,-16140,1436,2,A
1781598943297,512,-16284,1644,2,A
1781598943318,684,-16412,1692,2,A
1781598943340,832,-16168,1456,2,A
1781598943360,716,-16112,1564,2,A
1781598943383,736,-16408,1668,2,A
1781598943405,456,-16392,1852,2,A
1781598943426,556,-16132,1516,2,A
1781598943448,644,-16104,1288,2,A
1781598943469,644,-16220,1480,2,A
1781598943490,648,-16388,1468,2,A
1781598943512,472,-16088,1724,2,A
1781598943534,668,-16100,1540,2,A
1781598943555,632,-16176,1636,2,A
1781598943577,792,-16096,1584,2,A
1781598943598,624,-16232,1596,2,A
1781598943620,672,-16192,1512,2,A
1781598943642,556,-16192,1540,2,A
1781598943663,704,-16104,1472,2,A
1781598943685,488,-16304,1636,2,A
1781598943706,692,-16344,1540,2,A
1781598943728,456,-16136,1724,2,A
1781598943750,568,-16252,1596,2,A
1781598943771,668,-16388,1400,2,A
1781598943792,844,-16128,1196,2,A
1781598943814,676,-16112,1500,2,A
1781598943835,528,-16160,1740,2,A
1781598943857,620,-16360,1600,2,A
1781598943879,456,-16148,1720,2,A
1781598943900,676,-16280,1520,2,A
1781598943922,548,-16220,1616,2,A
1781598943944,768,-16232,1412,2,A
1781598943966,604,-16236,1580,2,A
1781598943987,428,-16220,1684,2,A
1781598944008,444,-16256,1732,2,A
1781598944030,480,-16256,1736,2,A
1781598944051,572,-16364,1544,2,A
1781598944072,700,-16240,1504,2,A
1781598944094,316,-16128,1764,2,A
1781598944116,520,-16072,1452,2,A
1781598944138,580,-16476,1560,2,A
1781598944159,568,-16144,1584,2,A
1781598944180,424,-16008,1664,2,A
1781598944202,600,-16248,1668,2,A
1781598944223,592,-16212,1492,2,A
1781598944245,428,-16028,1588,2,A
1781598944266,560,-16368,1488,2,A
1781598944289,652,-16420,1604,2,A
1781598944309,528,-16016,1528,2,A
1781598944331,448,-16172,1608,2,A
1781598944353,612,-16168,1640,2,A
1781598944374,540,-16196,1688,2,A
1781598944396,508,-16216,1656,2,A
1781598944417,568,-16164,1608,2,A
1781598944439,632,-16368,1504,2,A
1781598944461,596,-16236,1432,2,A
1781598944482,632,-16356,1524,2,A
1781598944502,560,-16276,1644,2,A
1781598944525,640,-16160,1592,2,A
1781598944546,528,-16116,1600,2,A
1781598944568,616,-16168,1476,2,A
1781598944590,584,-16284,1512,2,A
1781598944611,768,-16216,1480,2,A
1781598944632,476,-16188,1680,2,A
1781598944654,584,-16092,1624,2,A
1781598944676,560,-16264,1792,2,A
1781598944697,448,-16232,1688,2,A
1781598944719,788,-16420,1448,2,A
1781598944740,308,-16256,1700,2,A
1781598944762,32,-15948,1868,2,A
1781598944784,284,-15952,1668,2,A
1781598944805,448,-16452,1708,2,A
1781598944826,500,-16548,1736,2,A
1781598944848,416,-16384,1776,2,A
1781598944870,508,-15964,1488,2,A
1781598944891,324,-16236,1736,2,A
1781598944912,356,-16384,1876,2,A
1781598944934,520,-16208,1692,2,A
1781598944956,448,-15980,1652,2,A
1781598944977,336,-15992,1892,2,A
1781598944999,352,-16428,1760,2,A
1781598945021,28,-16272,2116,2,A
1781598945042,408,-16092,1552,2,A
1781598945063,304,-16212,1776,2,A
1781598945084,416,-16040,1736,2,A
1781598945107,356,-16076,1784,2,A
1781598945128,584,-16328,1700,2,A
1781598945150,820,-16540,1508,2,A
1781598945172,904,-16616,1408,2,A
1781598945193,544,-16160,1684,2,A
1781598945215,100,-16264,2136,2,A
1781598945236,-16,-16288,2076,2,A
1781598945257,-92,-16036,2024,2,A
1781598945279,-8,-15968,1800,2,A
1781598945300,-36,-16036,1968,2,A
1781598945322,44,-16220,2128,2,A
1781598945343,288,-16556,2044,2,A
1781598945365,508,-16360,1840,2,A
1781598945386,192,-15880,2040,2,A
1781598945408,472,-16084,1820,2,A
1781598945430,444,-16048,1840,2,A
1781598945451,-196,-15908,2300,2,A
1781598945473,452,-16488,1548,2,A
1781598945495,1628,-16136,1000,2,A
1781598945517,400,-16496,2192,2,A
1781598945537,492,-16040,1832,2,A
1781598945559,520,-16060,1832,2,A
1781598945581,420,-16312,1836,2,A
1781598945602,320,-16304,1940,2,A
1781598945624,-40,-16280,2168,2,A
1781598945646,-600,-16092,2540,2,A
1781598945667,-204,-16004,2208,2,A
1781598945689,-460,-16052,2536,2,A
1781598945711,-340,-16332,2548,2,A
1781598945733,-172,-16436,2388,2,A
1781598945754,-196,-16148,2308,2,A
1781598945775,-96,-16276,2140,2,A
1781598945797,64,-16084,2144,2,A
1781598945819,-40,-16100,2072,2,A
1781598945840,-68,-16180,2036,2,A
1781598945862,-80,-16364,2076,2,A
1781598945884,-300,-16076,2276,2,A
1781598945905,-188,-16096,2128,2,A
1781598945926,236,-16208,1812,2,A
1781598945949,200,-16488,2100,2,A
1781598945970,336,-16300,2136,2,A
1781598945990,572,-16088,1728,2,A
1781598946013,476,-16180,1816,2,A
1781598946035,1288,-20388,2140,2,A
1781598946056,244,-16956,2200,2,A
1781598946077,284,-15440,1920,2,A
1781598946099,-460,-15864,2292,2,A
1781598946120,-692,-15744,2280,2,A
1781598946143,-392,-15844,2208,2,A
1781598946164,-268,-16136,2204,2,A
1781598946186,-188,-16268,2400,2,A
1781598946207,-72,-16416,2352,2,A
1781598946229,444,-16324,1752,2,A
1781598946251,268,-15924,1980,2,A
1781598946272,-8,-15724,2124,2,A
1781598946293,260,-16520,2016,2,A
1781598946315,508,-16676,1708,2,A
1781598946336,176,-16020,1816,2,A
1781598946359,-260,-15832,1988,2,A
1781598946380,-220,-15688,2160,2,A
1781598946401,-140,-16076,2528,2,A
1781598946423,260,-16288,2192,2,A
1781598946444,456,-17020,2092,2,A
1781598946466,512,-16880,1840,2,A
1781598946487,-52,-16068,1904,2,A
1781598946509,-628,-15608,2252,2,A
1781598946531,-308,-15924,2116,2,A
1781598946553,136,-16224,1972,2,A
1781598946574,392,-16048,1704,2,A
1781598946595,592,-16064,1796,2,A
1781598946617,-24,-16392,2592,2,A
1781598946638,168,-16600,2024,2,A
1781598946660,416,-16232,1800,2,A
1781598946682,376,-15980,1724,2,A
1781598946703,-20,-15824,2096,2,A
1781598946725,-48,-15904,2240,2,A
1781598946746,480,-16092,1800,2,A
1781598946768,428,-16448,1992,2,A
1781598946790,708,-16416,1696,2,A
1781598946811,248,-16216,1968,2,A
1781598946832,280,-15856,1860,2,A
1781598946854,148,-15928,1920,2,A
1781598946875,484,-16268,2020,2,A
1781598946898,592,-16344,1932,2,A
1781598946919,476,-16352,2124,2,A
1781598946941,548,-16372,1868,2,A
1781598946963,504,-16116,1988,2,A
1781598946985,412,-16096,2024,2,A
1781598947005,376,-16264,2000,2,A
1781598947026,816,-16800,1640,2,A
1781598947048,416,-15884,1872,2,A
1781598947070,192,-16028,2112,2,A
1781598947091,432,-16152,2032,2,A
1781598947113,640,-16400,2012,2,A
1781598947135,596,-16204,1972,2,A
1781598947156,344,-16144,2004,2,A
1781598947177,236,-16168,2148,2,A
1781598947199,532,-16228,1896,2,A
1781598947221,444,-16084,1860,2,A
1781598947242,304,-16076,2104,2,A
1781598947264,372,-16176,2168,2,A
1781598947286,276,-16340,2072,2,A
1781598947308,520,-16352,2004,2,A
1781598947329,448,-16200,1788,2,A
1781598947350,460,-16104,1944,2,A
1781598947371,272,-16192,2016,2,A
1781598947392,384,-16236,2096,2,A
1781598947415,300,-16304,2108,2,A
1781598947437,344,-16092,1852,2,A
1781598947457,308,-16168,1956,2,A
1781598947479,156,-16184,2068,2,A
1781598947501,248,-16280,2004,2,A
1781598947523,320,-16048,1896,2,A
1781598947544,468,-16420,1852,2,A
1781598947565,488,-16208,2012,2,A
1781598947587,492,-16168,1880,2,A
1781598947609,496,-16108,1972,2,A
1781598947631,396,-16136,1940,2,A
1781598947651,220,-16276,2180,2,A
1781598947673,332,-16344,2000,2,A
1781598947695,364,-16312,2008,2,A
1781598947717,532,-16224,1808,2,A
1781598947738,176,-16132,2096,2,A
1781598947759,428,-16204,1936,2,A
1781598947781,244,-16112,2040,2,A
1781598947803,292,-16308,2020,2,A
1781598947824,256,-16344,2008,2,A
1781598947846,460,-16204,1836,2,A
1781598947867,392,-15996,1944,2,A
1781598947889,324,-16052,1948,2,A
1781598947910,348,-16248,1908,2,A
1781598947932,340,-16432,1980,2,A
1781598947954,480,-16276,1856,2,A
1781598947975,276,-16140,1952,2,A
1781598947997,212,-16036,2088,2,A
1781598948019,476,-15988,1772,2,A
1781598948040,336,-16236,2000,2,A
1781598948061,368,-16268,1944,2,A
1781598948083,336,-16212,2020,2,A
1781598948105,320,-16216,1916,2,A
1781598948126,304,-16248,2020,2,A
1781598948148,320,-16360,2012,2,A
1781598948169,284,-16152,1852,2,A
1781598948191,288,-16032,1908,2,A
1781598948212,276,-16192,1952,2,A
1781598948234,328,-16396,1932,2,A
1781598948256,324,-16236,1960,2,A
1781598948278,240,-16156,1908,2,A
1781598948299,200,-16248,1988,2,A
1781598948321,288,-16120,1888,2,A
1781598948342,336,-16200,1760,2,A
1781598948363,164,-16284,2036,2,A
1781598948385,252,-16360,2048,2,A
1781598948406,296,-16176,1876,2,A
1781598948428,224,-16160,1900,2,A
1781598948450,316,-16256,2008,2,A
1781598948471,284,-16172,1952,2,A
1781598948492,340,-16212,1956,2,A
1781598948514,212,-16124,2008,2,A
1781598948536,292,-16304,1956,2,A
1781598948557,380,-16328,1812,2,A
1781598948579,212,-16244,1800,2,A
1781598948600,168,-16452,2060,2,A
1781598948622,116,-16144,1984,2,A
1781598948643,136,-15988,2016,2,A
1781598948665,88,-16092,2032,2,A
1781598948688,120,-16260,1996,2,A
1781598948709,168,-16356,1924,2,A
1781598948731,268,-16188,1924,2,A
1781598948752,104,-16076,2024,2,A
1781598948774,-84,-16160,1984,2,A
1781598948796,112,-16216,2004,2,A
1781598948817,148,-16304,1960,2,A
1781598948838,96,-16228,1924,2,A
1781598948860,72,-16268,2032,2,A
1781598948882,260,-16232,1804,2,A
1781598948905,372,-16320,1912,2,A
1781598948925,88,-16280,2120,2,A
1781598948946,12,-16112,2128,2,A
1781598948968,192,-16172,1800,2,A
1781598948990,184,-16220,2044,2,A
1781598949012,64,-16408,2152,2,A
1781598949033,-4,-16184,2020,2,A
1781598949056,100,-15800,2036,2,A
1781598949076,192,-16160,1912,2,A
1781598949098,252,-16512,2012,2,A
1781598949120,152,-16180,2004,2,A
1781598949141,48,-15888,1992,2,A
1781598949162,-68,-16188,2212,2,A
1781598949184,24,-16252,2140,2,A
1781598949206,124,-16192,1968,2,A
1781598949227,136,-16224,2016,2,A
1781598949249,-252,-16036,2408,2,A
1781598949270,-84,-16128,2152,2,A
1781598949291,156,-16312,2040,2,A
1781598949314,48,-16164,2172,2,A
1781598949334,-80,-16244,2312,2,A
1781598949357,-8,-16236,2300,2,A
1781598949378,-92,-16012,2104,2,A
1781598949399,-28,-16112,2088,2,A
1781598949421,24,-16436,2236,2,A
1781598949443,64,-16168,2032,2,A
1781598949464,-76,-15976,2064,2,A
1781598949486,-24,-16124,2260,2,A
1781598949508,-116,-16212,2304,2,A
1781598949530,128,-16280,2060,2,A
1781598949550,388,-16196,1772,2,A
1781598949572,-92,-16188,2220,2,A
1781598949593,-160,-16104,2340,2,A
1781598949615,356,-16168,1876,2,A
1781598949636,272,-16224,2076,2,A
1781598949659,56,-16240,2268,2,A
1781598949680,160,-16248,2092,2,A
1781598949701,356,-16204,1896,2,A
1781598949723,464,-16492,1860,2,A
1781598949744,-92,-16172,2260,2,A
1781598949766,-32,-15848,2192,2,A
1781598949788,216,-16076,2080,2,A
1781598949809,344,-16272,1936,2,A
1781598949830,476,-16276,1932,2,A
1781598949852,580,-16356,1864,2,A
1781598949874,376,-15976,1956,2,A
1781598949895,32,-15908,2120,2,A
1781598949917,212,-15956,2000,2,A
1781598949939,496,-16340,2088,2,A
1781598949960,612,-16200,1916,2,A
1781598949982,432,-16092,1976,2,A
1781598950003,368,-16148,2168,2,A
1781598950025,292,-16216,2248,2,A
1781598950047,492,-16148,1980,2,A
1781598950068,448,-16368,1936,2,A
1781598950090,300,-16376,2144,2,A
1781598950111,148,-16116,2204,2,A
1781598950133,216,-16220,1880,2,A
1781598950154,488,-16332,1864,2,A
1781598950176,536,-16436,1968,2,A
1781598950198,436,-16156,1956,2,A
1781598950219,612,-16248,1780,2,A
1781598950241,604,-16228,1708,2,A
1781598950262,432,-16268,1956,2,A
1781598950284,460,-16232,1992,2,A
1781598950305,480,-16288,1848,2,A
1781598950327,368,-16204,1948,2,A
1781598950349,408,-16188,2000,2,A
1781598950369,344,-16128,1988,2,A
1781598950391,420,-16156,1880,2,A
1781598950413,508,-16132,1840,2,A
1781598950435,356,-16276,1976,2,A
1781598950456,308,-16160,2144,2,A
1781598950477,616,-16272,1752,2,A
1781598950499,424,-16060,1916,2,A
1781598950521,304,-16056,2008,2,A
1781598950542,544,-16284,1904,2,A
1781598950563,556,-16316,1864,2,A
1781598950586,536,-16328,1980,2,A
1781598950608,404,-16088,1952,2,A
1781598950629,432,-16192,1984,2,A
1781598950650,504,-16160,1996,2,A
1781598950671,532,-16160,1852,2,A
1781598950694,564,-16236,1736,2,A
1781598950714,604,-16332,1932,2,A
1781598950736,440,-16160,2016,2,A
1781598950758,644,-16184,1804,2,A
1781598950779,576,-16292,1824,2,A
1781598950801,368,-16192,2064,2,A
1781598950823,688,-16500,1576,2,A
1781598950845,40,-16480,2404,2,A
1781598950866,500,-16020,1800,2,A
1781598950887,636,-16240,2000,2,A
1781598950909,364,-15996,1944,2,A
1781598950930,560,-16288,1892,2,A
1781598950952,296,-16172,2188,2,A
1781598950974,460,-16296,2076,2,A
1781598950996,528,-16204,1980,2,A
1781598951016,600,-16276,1844,2,A
1781598951038,220,-16228,2028,2,A
1781598951059,328,-16084,1984,2,A
1781598951082,680,-16288,1788,2,A
1781598951104,384,-16492,2104,2,A
1781598951124,344,-16204,2136,2,A
1781598951146,464,-16144,2028,2,A
1781598951167,500,-16096,1920,2,A
1781598951189,696,-16232,1820,2,A
1781598951211,540,-16168,1940,2,A
1781598951233,420,-16132,2132,2,A
1781598951254,520,-16360,2004,2,A
1781598951275,844,-16236,1748,2,A
1781598951297,680,-16172,1940,2,A
1781598951318,436,-16108,2248,2,A
1781598951340,572,-16192,1960,2,A
1781598951361,640,-16160,1848,2,A
1781598951383,652,-16260,1928,2,A
1781598951405,456,-16256,2156,2,A
1781598951426,468,-16248,2116,2,A
1781598951448,540,-16024,1816,2,A
1781598951469,864,-16124,1668,2,A
1781598951491,652,-16428,1976,2,A
1781598951512,300,-16444,2276,2,A
1781598951534,632,-16436,2060,2,A
1781598951556,724,-15912,1844,2,A
1781598951577,720,-15424,1664,2,A
1781598951599,644,-15700,1956,2,A
1781598951620,416,-15996,2228,2,A
1781598951642,440,-15940,2156,2,A
1781598951664,788,-16256,1932,2,A
1781598951685,208,-18520,2084,2,A
1781598951706,964,-15572,1908,2,A
1781598951728,580,-14828,1552,2,A
1781598951749,1156,-15828,1720,2,A
1781598951771,920,-16036,2024,2,A
1781598951792,512,-15876,2340,2,A
1781598951815,900,-15960,1900,2,A
1781598951836,636,-16428,2420,2,A
1781598951857,640,-16388,2328,2,A
1781598951879,1012,-16232,1776,2,A
1781598951900,908,-16156,1952,2,A
1781598951922,604,-16292,2156,2,A
1781598951944,588,-16256,2200,2,A
1781598951965,924,-16144,1800,2,A
1781598951987,764,-16136,1948,2,A
1781598952009,632,-16284,2216,2,A
1781598952030,620,-16292,2008,2,A
1781598952052,752,-16112,1788,2,A
1781598952073,472,-16148,2056,2,A
1781598952095,632,-16048,1864,2,A
1781598952117,424,-15988,2008,2,A
1781598952139,652,-15804,1732,2,A
1781598952159,616,-16220,2040,2,A
1781598952182,720,-16404,2040,2,A
1781598952202,608,-16236,2136,2,A
1781598952224,676,-15976,1796,2,A
1781598952246,560,-16228,1876,2,A
1781598952267,632,-16360,1936,2,A
1781598952289,536,-16092,1928,2,A
1781598952310,440,-16060,1756,2,A
1781598952332,228,-16240,2032,2,A
1781598952353,216,-16488,2276,2,A
1781598952375,476,-16184,1840,2,A
1781598952397,456,-16032,1876,2,A
1781598952418,152,-16288,1992,2,A
1781598952440,220,-16348,2112,2,A
1781598952461,476,-16300,1864,2,A
1781598952483,408,-16268,1884,2,A
1781598952504,340,-16344,2032,2,A
1781598952527,440,-16260,1924,2,A
1781598952547,480,-16008,1812,2,A
1781598952569,744,-16300,1600,2,A
1781598952591,424,-16160,1892,2,A
1781598952612,528,-16108,1720,2,A
1781598952634,696,-16184,1572,2,A
1781598952656,404,-16264,2004,2,A
1781598952676,176,-16200,1960,2,A
1781598952699,508,-16340,1672,2,A
1781598952720,592,-16388,1636,2,A
1781598952742,264,-15996,1960,2,A
1781598952764,300,-15636,1736,2,A
1781598952785,88,-16444,2104,2,A
1781598952806,844,-16804,1472,2,A
1781598952828,812,-16772,1772,2,A
1781598952849,920,-15852,1288,2,A
1781598952870,440,-16168,1720,2,A
1781598952893,500,-16064,1672,2,A
1781598952913,40,-16364,2048,2,A
1781598952936,464,-16240,1444,2,A
1781598952958,292,-16308,1728,2,A
1781598952979,88,-16072,2052,2,A
1781598953001,528,-16428,1640,2,A
1781598953022,464,-16272,1764,2,A
1781598953043,288,-16136,1908,2,A
1781598953065,264,-16020,1920,2,A
1781598953086,316,-16072,1636,2,A
1781598953108,508,-16096,1700,2,A
1781598953129,308,-16224,2012,2,A
1781598953151,348,-16480,2008,2,A
1781598953174,496,-16252,1792,2,A
1781598953194,680,-16056,1420,2,A
1781598953216,408,-16232,1832,2,A
1781598953238,636,-16380,1696,2,A
1781598953259,580,-16220,1788,2,A
1781598953281,496,-16204,1632,2,A
1781598953302,600,-16352,1800,2,A
1781598953324,508,-16228,1852,2,A
1781598953345,612,-16084,1640,2,A
1781598953367,804,-16324,1604,2,A
1781598953388,684,-16288,1728,2,A
1781598953410,372,-16164,2092,2,A
1781598953431,556,-16160,1824,2,A
1781598953454,676,-16304,1692,2,A
1781598953474,704,-16140,1628,2,A
1781598953496,648,-16196,1704,2,A
1781598953518,484,-16204,1888,2,A
1781598953539,692,-16136,1640,2,A
1781598953560,636,-16188,1872,2,A
1781598953582,684,-15964,1712,2,A
1781598953604,760,-16168,1536,2,A
1781598953626,768,-16144,1696,2,A
1781598953647,488,-16220,1904,2,A
1781598953669,500,-16180,1964,2,A
1781598953690,764,-16408,1724,2,A
1781598953711,964,-16436,1520,2,A
1781598953733,644,-16052,1828,2,A
1781598953755,360,-15800,1804,2,A
1781598953776,420,-16100,1804,2,A
1781598953798,664,-16556,1672,2,A
1781598953820,624,-16476,1844,2,A
1781598953841,464,-16248,1796,2,A
1781598953862,608,-16036,1644,2,A
1781598953884,320,-15980,1844,2,A
1781598953907,204,-16248,1944,2,A
1781598953928,568,-16472,1704,2,A
1781598953949,652,-16252,1656,2,A
1781598953970,332,-16164,2036,2,A
1781598953992,236,-16280,2152,2,A
1781598954014,472,-16264,1744,2,A
1781598954035,564,-15948,1672,2,A
1781598954057,508,-16156,1876,2,A
1781598954078,336,-16392,2008,2,A
1781598954100,560,-16252,1860,2,A
1781598954121,580,-15864,1696,2,A
1781598954143,468,-16232,1800,2,A
1781598954164,652,-16276,1740,2,A
1781598954186,544,-16112,1816,2,A
1781598954207,384,-16104,1852,2,A
1781598954229,644,-16240,1768,2,A
1781598954252,476,-16136,1820,2,A
1781598954272,528,-16192,1700,2,A
1781598954293,700,-16352,1672,2,A
1781598954315,460,-16164,1908,2,A
1781598954337,292,-16080,1968,2,A
1781598954359,500,-16160,1812,2,A
1781598954380,360,-16116,1912,2,A
1781598954401,416,-16296,1932,2,A
1781598954424,456,-16212,1828,2,A
1781598954444,612,-16232,1612,2,A
1781598954467,468,-16204,1864,2,A
1781598954488,316,-16236,2032,2,A
1781598954509,372,-16228,1816,2,A
1781598954531,596,-16304,1696,2,A
1781598954552,364,-16340,1836,2,A
1781598954574,320,-16156,2024,2,A
1781598954596,556,-16100,1628,2,A
1781598954617,508,-16092,1736,2,A
1781598954639,344,-16264,1968,2,A
1781598954661,256,-16332,1936,2,A
1781598954683,348,-16088,1832,2,A
1781598954705,424,-16208,1852,2,A
1781598954726,364,-16212,1684,2,A
1781598954748,384,-16280,1920,2,A
1781598954769,416,-16144,1900,2,A
1781598954791,380,-16088,1788,2,A
1781598954813,268,-16208,1992,2,A
1781598954834,272,-16296,1968,2,A
1781598954856,332,-16176,1912,2,A
1781598954877,540,-16680,1796,2,A
1781598954899,376,-16300,1952,2,A
1781598954920,16,-16132,2200,2,A
1781598954942,312,-15948,1980,2,A
1781598954963,-24,-16104,2040,2,A
1781598954985,308,-16484,1940,2,A
1781598955007,352,-16224,1892,2,A
1781598955028,284,-16052,1924,2,A
1781598955049,136,-16228,2372,2,A
1781598955071,196,-16360,2092,2,A
1781598955094,312,-15912,1856,2,A
1781598955115,260,-16012,1956,2,A
1781598955136,492,-16420,1952,2,A
1781598955158,476,-16408,1792,2,A
1781598955179,416,-16192,1736,2,A
1781598955201,252,-16148,2060,2,A
1781598955222,224,-16036,1840,2,A
1781598955244,296,-16292,1868,2,A
1781598955266,76,-16204,2140,2,A
1781598955287,100,-16228,1964,2,A
1781598955309,440,-16012,1780,2,A
1781598955330,40,-16024,1964,2,A
1781598955351,-56,-16296,2016,2,A
1781598955373,88,-16592,1960,2,A
1781598955395,220,-16052,1648,2,A
1781598955416,108,-16020,1772,2,A
1781598955438,372,-16548,1864,2,A
1781598955459,488,-16392,1764,2,A
1781598955481,332,-16016,1664,2,A
1781598955502,468,-16096,1504,2,A
1781598955524,268,-16376,1832,2,A
1781598955545,64,-16308,2004,2,A
1781598955567,228,-16196,1648,2,A
1781598955589,180,-16336,1692,2,A
1781598955611,108,-16348,1800,2,A
1781598955631,228,-16152,1844,2,A
1781598955653,228,-16072,1768,2,A
1781598955676,404,-16292,1828,2,A
1781598955697,196,-16460,1952,2,A
1781598955718,656,-16036,1368,2,A
1781598955740,276,-15840,1600,2,A
1781598955761,208,-16336,1688,2,A
1781598955782,416,-16480,1800,2,A
1781598955804,100,-16024,1912,2,A
1781598955826,-92,-15576,1820,2,A
1781598955847,-108,-16192,1932,2,A
1781598955869,56,-16492,1888,2,A
1781598955891,396,-15960,1296,2,A
1781598955912,316,-16084,1660,2,A
1781598955934,296,-16092,1728,2,A
1781598955956,384,-16264,1748,2,A
1781598955978,1112,-16384,1304,2,A
1781598955998,1776,-17412,992,2,A
1781598956020,56,-15936,2212,2,A
1781598956042,176,-16048,1960,2,A
1781598956063,544,-16296,1536,2,A
1781598956084,828,-16676,1136,2,A
1781598956106,1020,-17540,1268,2,A
1781598956128,452,-16096,1408,2,A
1781598956150,-188,-14772,2016,2,A
1781598956172,-228,-15032,2052,2,A
1781598956192,724,-16376,1604,2,A
1781598956214,1268,-17196,1340,2,A
1781598956237,944,-16764,1116,2,A
1781598956257,876,-16356,756,2,A
1781598956279,220,-16232,1228,2,A
1781598956300,20,-16272,1244,2,A
1781598956323,-812,-15996,1316,2,A
1781598956344,-52,-15752,1248,2,A
1781598956365,-496,-16588,2280,2,A
1781598956387,56,-16456,1900,2,A
1781598956408,508,-16488,1264,2,A
1781598956430,248,-16124,1380,2,A
1781598956452,252,-16000,1188,2,A
1781598956473,96,-16464,1348,2,A
1781598956495,344,-16128,852,2,A
1781598956516,196,-16116,1036,2,A
1781598956538,260,-16640,1068,2,A
1781598956559,104,-16632,1612,2,A
1781598956581,-32,-16172,1812,2,A
1781598956603,-32,-16032,1860,2,A
1781598956624,76,-16760,2044,2,A
1781598956645,28,-16696,1944,2,A
1781598956667,624,-16244,1152,2,A
1781598956688,912,-15700,888,2,A
1781598956710,636,-15776,1084,2,A
1781598956732,428,-16104,1740,2,A
1781598956753,624,-16468,1560,2,A
1781598956775,392,-16472,1540,2,A
1781598956796,188,-16752,1908,2,A
1781598956818,-556,-16152,2372,2,A
1781598956841,548,-15232,1260,2,A
1781598956861,136,-14860,1704,2,A
1781598956882,596,-16796,1904,2,A
1781598956905,1084,-16976,1312,2,A
1781598956926,820,-16268,1348,2,A
1781598956947,-100,-15476,1980,2,A
1781598956969,-684,-16236,2808,2,A
1781598956991,312,-16820,1996,2,A
1781598957012,1356,-16352,852,2,A
1781598957034,1096,-15896,944,2,A
1781598957056,160,-16116,2056,2,A
1781598957077,260,-15892,1820,2,A
1781598957099,432,-15552,1508,2,A
1781598957120,232,-16216,1868,2,A
1781598957142,1004,-15036,1084,2,A
1781598957163,656,-16164,1252,2,A
1781598957184,68,-15704,1512,2,A
1781598957206,-36,-16212,1696,2,A
1781598957228,240,-16548,1648,2,A
1781598957250,420,-16416,2020,2,A
1781598957270,168,-16084,1932,2,A
1781598957293,332,-15904,1848,2,A
1781598957314,296,-16144,1908,2,A
1781598957336,404,-16424,1444,2,A
1781598957357,608,-16276,1136,2,A
1781598957379,300,-16348,1616,2,A
1781598957400,-228,-16304,2092,2,A
1781598957422,68,-16180,1548,2,A
1781598957443,524,-15876,1124,2,A
1781598957465,200,-16016,1468,2,A
1781598957486,-20,-16404,2376,2,A
1781598957508,-360,-16868,2904,2,A
1781598957530,340,-16056,1696,2,A
1781598957551,564,-15812,1404,2,A
1781598957574,-228,-16176,2088,2,A
1781598957595,-656,-16276,2432,2,A
1781598957616,272,-16524,1652,2,A
1781598957638,348,-16244,1444,2,A
1781598957659,544,-17000,1344,2,A
1781598957681,852,-16892,940,2,A
1781598957703,740,-16812,932,2,A
1781598957724,84,-16408,1656,2,A
1781598957746,-48,-16356,1844,2,A
1781598957767,-300,-16240,1772,2,A
1781598957789,-12,-16032,1696,2,A
1781598957810,116,-16152,1488,2,A
1781598957832,-44,-15924,1496,2,A
1781598957853,208,-16700,1280,2,A
1781598957875,96,-15616,1232,2,A
1781598957896,-160,-16356,1860,2,A
1781598957918,-144,-16780,1748,2,A
1781598957940,568,-16564,1004,2,A
1781598957961,516,-16188,1004,2,A
1781598957983,276,-16120,1416,2,A
1781598958004,448,-16672,1544,2,A
1781598958026,260,-16504,1780,2,A
1781598958048,332,-16060,1500,2,A
1781598958070,-324,-15668,2048,2,A
1781598958091,-560,-16072,1920,2,A
1781598958113,-188,-15768,1184,2,A
1781598958135,-860,-16096,1868,2,A
1781598958156,-884,-16384,2192,2,A
1781598958178,-636,-16232,2088,2,A
1781598958199,-116,-16392,1720,2,A
1781598958221,68,-17084,1720,2,A
1781598958242,272,-16380,1220,2,A
1781598958264,36,-16104,1516,2,A
1781598958285,60,-16072,1872,2,A
1781598958307,-48,-16288,2288,2,A
1781598958329,524,-15912,1672,2,A
1781598958350,512,-15900,1536,2,A
1781598958371,320,-16588,1700,2,A
1781598958394,-184,-16260,1636,2,A
1781598958414,-284,-15528,1480,2,A
1781598958436,-776,-15672,1800,2,A
1781598958458,-1036,-16424,2268,2,A
1781598958479,-252,-17116,1900,2,A
1781598958501,224,-16308,1412,2,A
1781598958523,-48,-15632,1684,2,A
1781598958544,-112,-16248,2140,2,A
1781598958566,-156,-16484,2100,2,A
1781598958588,-216,-16460,1748,2,A
1781598958609,-12,-16740,1788,2,A
1781598958631,40,-16332,1536,2,A
1781598958652,-440,-16532,2020,2,A
1781598958674,-652,-16400,2232,2,A
1781598958695,-508,-16240,2004,2,A
1781598958717,-388,-15860,1876,2,A
1781598958738,-292,-15876,2012,2,A
1781598958760,-384,-15988,2136,2,A
1781598958782,-708,-15900,2248,2,A
1781598958803,-264,-16016,1940,2,A
1781598958825,-240,-16532,1912,2,A
1781598958846,-84,-16420,1692,2,A
1781598958868,-164,-15156,1432,2,A
1781598958891,-1720,-16188,3076,2,A
1781598958911,220,-17356,1872,2,A
1781598958933,864,-17448,1796,2,A
1781598958955,-352,-15920,2428,2,A
1781598958976,-640,-15188,2296,2,A
1781598958998,-188,-15732,1880,2,A
1781598959019,-164,-16084,2168,2,A
1781598959040,-120,-16636,2252,2,A
1781598959063,20,-16132,2068,2,A
1781598959084,-732,-16116,2352,2,A
1781598959106,104,-16832,1864,2,A
1781598959127,264,-16728,1712,2,A
1781598959149,-340,-15944,2172,2,A
1781598959170,-504,-15168,2244,2,A
1781598959192,-248,-15216,2212,2,A
1781598959214,-20,-16240,2516,2,A
1781598959235,424,-17088,2212,2,A
1781598959257,596,-17164,2004,2,A
1781598959279,-388,-16428,2380,2,A
1781598959300,-872,-15604,2624,2,A
1781598959322,-888,-15464,2428,2,A
1781598959344,92,-15912,1880,2,A
1781598959365,340,-16252,1996,2,A
1781598959387,420,-16580,1964,2,A
1781598959409,620,-16604,1948,2,A
1781598959429,-48,-16116,2180,2,A
1781598959451,-416,-16008,2192,2,A
1781598959472,-312,-16036,2324,2,A
1781598959494,-260,-16212,2188,2,A
1781598959516,-76,-16244,2268,2,A
1781598959538,128,-16192,2040,2,A
1781598959559,212,-16336,2080,2,A
1781598959581,152,-16352,2108,2,A
1781598959602,524,-16188,1712,2,A
1781598959623,552,-16244,1768,2,A
1781598959645,72,-16096,2120,2,A
1781598959667,-220,-16108,2396,2,A
1781598959688,-12,-15892,2204,2,A
1781598959710,16,-16104,2156,2,A
1781598959732,516,-16380,1840,2,A
1781598959753,100,-16148,2132,2,A
1781598959775,80,-15964,2020,2,A
1781598959796,200,-16184,2048,2,A
1781598959818,308,-16320,1980,2,A
1781598959839,252,-16172,2048,2,A
1781598959860,72,-16172,1976,2,A
1781598959882,112,-16212,1992,2,A
1781598959904,88,-16004,2028,2,A
1781598959926,40,-16088,2200,2,A
1781598959947,312,-16248,2004,2,A
1781598959969,244,-16184,2204,2,A
1781598959990,344,-16100,1952,2,A
1781598960012,412,-16216,1876,2,A
1781598960033,0,-16112,2184,2,A
1781598960055,44,-16188,2004,2,A
1781598960077,344,-16204,1640,2,A
1781598960098,256,-16172,1908,2,A
1781598960120,20,-16180,2172,2,A
1781598960142,40,-16344,2144,2,A
1781598960162,424,-16204,1872,2,A
1781598960184,136,-16052,1868,2,A
1781598960206,-72,-16116,2132,2,A
1781598960227,-8,-16316,2076,2,A
1781598960249,124,-16304,1988,2,A
1781598960270,176,-16180,1904,2,A
1781598960292,8,-16480,2036,2,A
1781598960313,-12,-16208,2028,2,A
1781598960335,44,-15992,1948,2,A
1781598960357,264,-16224,1856,2,A
1781598960378,236,-16348,1992,2,A
1781598960401,40,-16268,2132,2,A
1781598960422,344,-16212,1876,2,A
1781598960443,244,-16524,1864,2,A
1781598960464,4,-16256,2036,2,A
1781598960486,-216,-15964,2236,2,A
1781598960508,44,-15948,1972,2,A
1781598960530,160,-16112,2048,2,A
1781598960552,212,-16132,1980,2,A
1781598960574,64,-16284,2112,2,A
1781598960595,148,-16268,1968,2,A
1781598960617,0,-16064,1932,2,A
1781598960638,-208,-16196,2188,2,A
1781598960661,40,-16412,1972,2,A
1781598960681,136,-16244,1984,2,A
1781598960704,-196,-15972,2204,2,A
1781598960725,80,-16144,1964,2,A
1781598960747,284,-16424,1880,2,A
1781598960768,12,-16284,2164,2,A
1781598960790,-28,-16232,1976,2,A
1781598960810,-156,-16104,2212,2,A
1781598960833,-192,-16252,2036,2,A
1781598960854,-52,-16092,1912,2,A
1781598960876,64,-16212,1756,2,A
1781598960897,-76,-16240,1992,2,A
1781598960919,-92,-16084,2100,2,A
1781598960940,-36,-16020,1948,2,A
1781598960963,404,-16256,1644,2,A
1781598960984,212,-16316,1892,2,A
1781598961005,-132,-16348,2124,2,A
1781598961027,-112,-16160,1924,2,A
1781598961049,-172,-16064,1744,2,A
1781598961070,-212,-16128,2052,2,A
1781598961092,-164,-16220,2048,2,A
1781598961114,-60,-16368,2044,2,A
1781598961135,132,-16480,1988,2,A
1781598961157,68,-16128,1832,2,A
1781598961178,-108,-16168,2148,2,A
1781598961199,100,-16204,1964,2,A
1781598961221,-64,-16176,1956,2,A
1781598961243,432,-17196,1568,2,A
1781598961265,-164,-16164,2092,2,A
1781598961286,4,-16044,1904,2,A
1781598961308,-424,-16176,2292,2,A
1781598961329,-12,-16036,1772,2,A
1781598961351,124,-16184,1844,2,A
1781598961372,-96,-16140,2224,2,A
1781598961394,-36,-16268,2108,2,A
1781598961415,116,-16320,1964,2,A
1781598961437,-180,-16080,2092,2,A
1781598961458,-304,-16112,2104,2,A
1781598961480,-24,-16316,2096,2,A
1781598961502,252,-16592,1800,2,A
1781598961523,28,-16292,1772,2,A
1781598961544,48,-16032,1824,2,A
1781598961566,-224,-16160,2016,2,A
1781598961588,-172,-16248,2080,2,A
1781598961609,228,-15956,1644,2,A
1781598961630,76,-16132,1736,2,A
1781598961652,-4,-16384,2012,2,A
1781598961674,28,-16072,2032,2,A
1781598961695,-60,-16100,2024,2,A
1781598961717,-160,-16220,1984,2,A
1781598961738,-28,-16488,1940,2,A
1781598961760,-108,-16288,2060,2,A
1781598961781,-8,-16140,2032,2,A
1781598961804,-108,-16300,2008,2,A
1781598961824,92,-16212,1752,2,A
1781598961847,140,-16172,1836,2,A
1781598961868,100,-16088,1952,2,A
1781598961889,-20,-16352,2008,2,A
1781598961910,176,-16104,1900,2,A
1781598961933,116,-15916,1904,2,A
1781598961955,316,-16216,1872,2,A
1781598961976,48,-16308,2064,2,A
1781598961997,176,-16164,1880,2,A
1781598962019,52,-16124,1988,2,A
1781598962041,136,-16152,1896,2,A
1781598962062,-44,-16232,2164,2,A
1781598962083,-48,-16300,2256,2,A
1781598962105,240,-16312,1916,2,A
1781598962126,168,-16188,1908,2,A
1781598962148,-64,-16228,2092,2,A
1781598962170,12,-16200,1948,2,A
1781598962191,8,-16208,2048,2,A
1781598962213,132,-16200,1848,2,A
1781598962235,64,-16312,1976,2,A
1781598962256,-44,-16204,2180,2,A
1781598962278,-312,-16080,2380,2,A
1781598962299,140,-16168,1880,2,A
1781598962321,184,-16196,2012,2,A
1781598962343,-128,-16120,2064,2,A
1781598962364,-4,-16328,2000,2,A
1781598962386,112,-16276,1856,2,A
1781598962406,-100,-16164,2224,2,A
1781598962429,-104,-16256,2188,2,A
1781598962451,64,-16316,1972,2,A
1781598962472,168,-16076,1916,2,A
1781598962493,-36,-16172,2104,2,A
1781598962515,8,-16236,1992,2,A
1781598962536,64,-16296,1904,2,A
1781598962558,164,-16248,1976,2,A
1781598962579,-200,-16148,2240,2,A
1781598962601,-32,-16132,2072,2,A
1781598962623,136,-16000,1920,2,A
1781598962645,144,-16240,1928,2,A
1781598962665,64,-16376,2072,2,A
1781598962687,144,-16248,2084,2,A
1781598962709,184,-16100,1772,2,A
1781598962730,-4,-16144,2036,2,A
1781598962752,28,-16156,2108,2,A
1781598962774,-68,-16300,2256,2,A
1781598962795,260,-16096,1868,2,A
1781598962816,60,-16236,2124,2,A
1781598962838,-80,-16220,2108,2,A
1781598962859,264,-16344,1868,2,A
1781598962881,184,-16256,1924,2,A
1781598962903,-4,-16080,2136,2,A
1781598962925,52,-16164,2032,2,A
1781598962946,128,-16072,2004,2,A
1781598962969,168,-16148,2036,2,A
1781598962989,140,-16392,2108,2,A
1781598963011,20,-16236,2248,2,A
1781598963033,84,-15900,1944,2,A
1781598963054,32,-16228,2056,2,A
1781598963075,-8,-16280,2104,2,A
1781598963097,48,-16240,2040,2,A
1781598963119,-172,-16140,2208,2,A
1781598963140,-104,-16148,2000,2,A
1781598963162,96,-16316,1868,2,A
1781598963184,-160,-16108,2252,2,A
1781598963205,36,-16188,2088,2,A
1781598963226,60,-16304,2108,2,A
1781598963248,104,-16296,2080,2,A
1781598963269,92,-16024,1948,2,A
1781598963291,156,-16160,1988,2,A
1781598963313,-28,-16124,2176,2,A
1781598963335,-52,-16208,2152,2,A
1781598963356,196,-16168,1940,2,A
1781598963378,212,-16228,1944,2,A
1781598963399,-32,-16132,2124,2,A
1781598963421,-112,-16140,2200,2,A
1781598963442,84,-16248,1916,2,A
1781598963464,120,-16300,1960,2,A
1781598963485,56,-16164,2036,2,A
1781598963507,56,-16168,2172,2,A
1781598963529,64,-16264,1996,2,A
1781598963551,672,-16076,1444,2,A
1781598963571,64,-16356,2008,2,A
1781598963593,-176,-16140,2260,2,A
1781598963614,-128,-15992,2044,2,A
1781598963637,140,-16092,1860,2,A
1781598963658,372,-16220,1884,2,A
1781598963679,164,-16136,1980,2,A
1781598963701,12,-16068,2156,2,A
1781598963723,104,-16284,2012,2,A
1781598963744,140,-16168,1976,2,A
1781598963766,24,-16436,2212,2,A
1781598963787,312,-16288,1832,2,A
1781598963809,408,-16160,1888,2,A
1781598963831,208,-16236,2112,2,A
1781598963852,408,-16356,1984,2,A
1781598963874,160,-16204,1952,2,A
1781598963895,104,-16100,1952,2,A
1781598963917,280,-16244,1816,2,A
1781598963938,472,-16268,1628,2,A
1781598963960,204,-16304,1948,2,A
1781598963982,260,-16284,2040,2,A
1781598964003,192,-16224,2036,2,A
1781598964025,180,-16140,1884,2,A
1781598964046,300,-16224,1892,2,A
1781598964067,192,-16180,1980,2,A
1781598964089,320,-16252,1868,2,A
1781598964111,192,-16228,2044,2,A
1781598964132,80,-16236,2100,2,A
1781598964153,0,-16248,2076,2,A
1781598964175,220,-16308,1988,2,A
1781598964197,200,-16172,1964,2,A
1781598964218,72,-16212,1932,2,A
1781598964240,200,-16148,1912,2,A
1781598964262,24,-16088,1944,2,A
1781598964283,276,-16200,1884,2,A
1781598964305,140,-16292,2000,2,A
1781598964326,284,-16180,1920,2,A
1781598964348,48,-16212,2024,2,A
1781598964370,172,-16240,1932,2,A
1781598964391,76,-16076,1956,2,A
1781598964413,156,-16184,2044,2,A
1781598964434,360,-16304,1924,2,A
1781598964456,148,-16280,2068,2,A
1781598964477,56,-16264,2152,2,A
1781598964499,184,-15980,2000,2,A
1781598964521,-36,-16264,2112,2,A
1781598964542,96,-16220,2012,2,A
1781598964564,296,-16208,1868,2,A
1781598964585,152,-16164,2092,2,A
1781598964606,40,-16196,2212,2,A
1781598964628,156,-16096,2084,2,A
1781598964650,204,-16240,1872,2,A
1781598964671,188,-16284,1992,2,A
1781598964692,180,-16304,2108,2,A
1781598964714,196,-16092,1984,2,A
1781598964736,284,-16164,2012,2,A
1781598964758,128,-16200,2036,2,A
1781598964779,312,-16332,2068,2,A
1781598964801,280,-16128,1972,2,A
1781598964822,308,-16100,1996,2,A
1781598964844,252,-16260,2036,2,A
1781598964865,396,-16352,1936,2,A
1781598964887,120,-16084,2092,2,A
1781598964908,128,-16104,2060,2,A
1781598964930,132,-16252,2176,2,A
1781598964952,332,-16356,1952,2,A
1781598964974,172,-16228,2004,2,A
1781598964995,176,-16108,2020,2,A
1781598965016,152,-16156,2028,2,A
1781598965037,256,-16280,2008,2,A
1781598965060,208,-16268,2012,2,A
1781598965081,228,-16176,2112,2,A
1781598965103,152,-16148,1976,2,A
1781598965124,104,-16208,2004,2,A
1781598965145,68,-16296,2036,2,A
1781598965167,156,-16172,2104,2,A
1781598965189,220,-16264,1960,2,A
1781598965210,72,-16180,2068,2,A
1781598965231,136,-16192,2068,2,A
1781598965253,192,-16248,2008,2,A
1781598965274,228,-16240,1952,2,A
1781598965296,212,-16208,2084,2,A
1781598965318,-4,-16140,2096,2,A
1781598965339,-76,-16112,2176,2,A
1781598965360,192,-16232,1876,2,A
1781598965382,244,-16280,1944,2,A
1781598965404,248,-16260,1956,2,A
1781598965426,208,-16396,2116,2,A
1781598965447,44,-16184,2088,2,A
1781598965469,-72,-16128,2108,2,A
1781598965490,124,-16220,1908,2,A
1781598965512,288,-16460,1916,2,A
1781598965533,164,-16256,1920,2,A
1781598965555,32,-16108,2072,2,A
1781598965576,120,-16120,2024,2,A
1781598965599,108,-16284,2136,2,A
1781598965619,116,-16280,1996,2,A
1781598965642,4,-16044,1964,2,A
1781598965663,176,-16176,1940,2,A
1781598965684,68,-16316,1916,2,A
1781598965706,208,-16264,1924,2,A
1781598965728,76,-16096,2028,2,A
1781598965748,196,-16012,1744,2,A
1781598965771,252,-16080,1864,2,A
1781598965792,136,-16164,1940,2,A
1781598965813,-40,-16396,2144,2,A
1781598965835,128,-16420,2108,2,A
1781598965857,104,-16476,2124,2,A
1781598965878,8,-16076,2116,2,A
1781598965900,-92,-15984,2108,2,A
1781598965922,80,-16156,2136,2,A
1781598965943,116,-16268,2032,2,A
1781598965965,108,-16252,2024,2,A
1781598965986,168,-16060,2012,2,A
1781598966008,120,-16236,2040,2,A
1781598966030,168,-16200,2068,2,A
1781598966051,248,-16188,2116,2,A
1781598966073,108,-16344,2224,2,A
1781598966094,44,-16248,2076,2,A
1781598966115,144,-16344,2004,2,A
1781598966137,100,-16232,2168,2,A
1781598966158,-68,-15928,2172,2,A
1781598966180,116,-16108,1872,2,A
1781598966202,484,-16344,1812,2,A
1781598966223,252,-16376,2052,2,A
1781598966245,-216,-15980,2352,2,A
1781598966267,-20,-16040,1952,2,A
1781598966288,216,-16324,1788,2,A
1781598966310,-116,-16308,2264,2,A
1781598966331,36,-16076,2012,2,A
1781598966354,120,-16124,2012,2,A
1781598966374,216,-16264,1884,2,A
1781598966396,-4,-16228,2012,2,A
1781598966418,-12,-15996,1968,2,A
1781598966439,56,-16340,2000,2,A
1781598966460,20,-16288,2052,2,A
1781598966482,-72,-16136,1936,2,A
1781598966505,60,-16144,2024,2,A
1781598966527,172,-16288,1864,2,A
1781598966548,-188,-16260,2128,2,A
1781598966570,-52,-16012,2040,2,A
1781598966592,-164,-16204,2132,2,A
1781598966614,4,-16272,1932,2,A
1781598966635,36,-16324,2040,2,A
1781598966656,-56,-16192,2200,2,A
1781598966678,-64,-16212,2056,2,A
1781598966700,48,-16096,2052,2,A
1781598966721,-92,-16312,2160,2,A
1781598966742,52,-16188,2056,2,A
1781598966764,48,-16100,1972,2,A
1781598966786,-196,-16044,2184,2,A
1781598966808,76,-16256,2064,2,A
1781598966829,272,-15880,1488,2,A
1781598966850,92,-16436,2052,2,A
1781598966873,32,-16432,2288,2,A
1781598966893,96,-16068,2008,2,A
1781598966915,-140,-16232,2124,2,A
1781598966938,-52,-16148,2064,2,A
1781598966959,-168,-16020,2240,2,A
1781598966980,0,-16132,2100,2,A
1781598967002,104,-16248,2132,2,A
1781598967023,168,-16264,2136,2,A
1781598967045,-48,-16216,2248,2,A
1781598967067,-56,-16104,2252,2,A
1781598967087,88,-16188,1908,2,A
1781598967110,52,-16196,2016,2,A
1781598967131,-144,-16228,2088,2,A
1781598967152,-16,-16292,2184,2,A
1781598967174,44,-15996,1916,2,A
1781598967195,-8,-16008,2040,2,A
1781598967218,-204,-16156,2236,2,A
1781598967239,-184,-16264,2220,2,A
1781598967260,16,-16244,2124,2,A
1781598967283,-132,-16180,2112,2,A
1781598967304,-220,-16212,2164,2,A
1781598967325,0,-16200,2056,2,A
1781598967347,-180,-16084,2140,2,A
1781598967369,-136,-16172,2052,2,A
1781598967390,-172,-16248,2184,2,A
1781598967412,-128,-16220,2168,2,A
1781598967433,-52,-16124,2000,2,A
1781598967454,-84,-16012,2076,2,A
1781598967476,-160,-16108,2132,2,A
1781598967498,-60,-16336,1944,2,A
1781598967519,-24,-16480,1972,2,A
1781598967541,-348,-16296,2044,2,A
1781598967562,-244,-15916,2024,2,A
1781598967584,-176,-15984,2240,2,A
1781598967606,-32,-16172,2064,2,A
1781598967627,376,-16380,1764,2,A
1781598967649,20,-16296,2032,2,A
1781598967670,-304,-16192,2204,2,A
1781598967692,-244,-15896,2104,2,A
1781598967713,-60,-16008,1780,2,A
1781598967735,424,-16408,1568,2,A
1781598967757,-16,-16256,2156,2,A
1781598967779,-312,-16380,2448,2,A
1781598967800,-144,-16404,2124,2,A
1781598967821,20,-15832,1704,2,A
1781598967843,-264,-16012,2044,2,A
1781598967865,-444,-16416,2404,2,A
1781598967886,-84,-16376,1916,2,A
1781598967908,-340,-16168,2252,2,A
1781598967930,-144,-16404,1920,2,A
1781598967951,-180,-16264,1976,2,A
1781598967973,-208,-16108,1784,2,A
1781598967994,-324,-16152,2140,2,A
1781598968016,-204,-16132,1924,2,A
1781598968038,-224,-16292,2048,2,A
1781598968059,4,-16316,1912,2,A
1781598968080,-200,-16288,1980,2,A
1781598968103,-240,-16264,2000,2,A
1781598968124,-296,-16112,2008,2,A
1781598968146,-228,-16144,1920,2,A
1781598968168,-44,-16232,1832,2,A
1781598968189,-116,-16224,1952,2,A
1781598968210,-132,-16192,1980,2,A
1781598968232,-40,-16204,1936,2,A
1781598968253,28,-16380,1884,2,A
1781598968276,-140,-16272,2056,2,A
1781598968298,-264,-16148,1896,2,A
1781598968318,-228,-16020,1816,2,A
1781598968340,12,-16160,1736,2,A
1781598968362,-288,-16136,2044,2,A
1781598968383,-244,-16332,2040,2,A
1781598968405,-184,-16528,2120,2,A
1781598968426,-132,-16200,2072,2,A
1781598968448,-480,-16240,2260,2,A
1781598968470,-440,-16228,2092,2,A
1781598968491,-176,-16100,1676,2,A
1781598968513,-292,-16216,1900,2,A
1781598968534,-96,-16384,1916,2,A
1781598968556,24,-16388,1796,2,A
1781598968578,-96,-15948,1876,2,A
1781598968599,-632,-15764,2152,2,A
1781598968621,-624,-16064,2136,2,A
1781598968642,-196,-16392,1904,2,A
1781598968664,-256,-16140,1856,2,A
1781598968685,-304,-16072,1904,2,A
1781598968707,-324,-16448,2020,2,A
1781598968729,-108,-16384,1908,2,A
1781598968750,-508,-16108,2032,2,A
1781598968772,-556,-16184,1900,2,A
1781598968793,-488,-16404,2008,2,A
1781598968815,-412,-16296,1944,2,A
1781598968837,-300,-16104,2124,2,A
1781598968858,80,-16316,1864,2,A
1781598968879,-44,-16460,2156,2,A
1781598968902,-188,-16352,2404,2,A
1781598968924,-220,-15948,1844,2,A
1781598968945,-164,-16004,1584,2,A
1781598968966,-344,-16316,1948,2,A
1781598968988,-384,-16428,2212,2,A
1781598969010,-376,-16260,2032,2,A
1781598969030,-196,-16164,1716,2,A
1781598969053,-324,-16392,1968,2,A
1781598969074,-388,-16388,2080,2,A
1781598969096,-204,-16124,2048,2,A
1781598969117,-100,-16152,1856,2,A
1781598969139,-156,-16448,1920,2,A
1781598969160,-340,-16268,2048,2,A
1781598969183,-564,-16100,1936,2,A
1781598969205,-296,-16072,1704,2,A
1781598969225,-272,-16300,1872,2,A
1781598969247,-184,-16424,1932,2,A
1781598969269,-276,-16220,2028,2,A
1781598969290,-100,-16068,1588,2,A
1781598969312,-204,-16244,1724,2,A
1781598969334,-340,-16348,1948,2,A
1781598969355,-724,-16088,2192,2,A
1781598969377,-512,-15948,1900,2,A
1781598969398,-84,-16160,1572,2,A
1781598969420,-12,-16380,1728,2,A
1781598969442,-324,-16388,2168,2,A
1781598969463,-356,-15972,2048,2,A
1781598969484,40,-16180,1552,2,A
1781598969506,-124,-16144,1884,2,A
1781598969528,-168,-16256,1980,2,A
1781598969550,-412,-16024,2148,2,A
1781598969571,-64,-16236,1904,2,A
1781598969593,0,-16252,1740,2,A
1781598969614,-452,-16248,2208,2,A
1781598969636,-328,-16304,1948,2,A
1781598969657,-136,-16388,1672,2,A
1781598969679,-56,-16252,1696,2,A
1781598969700,-204,-16188,1924,2,A
1781598969722,-152,-16096,1920,2,A
1781598969743,-300,-16088,2036,2,A
1781598969765,-264,-16228,1832,2,A
1781598969786,-156,-16332,1604,2,A
1781598969809,-380,-16320,1912,2,A
1781598969830,-328,-16188,1756,2,A
1781598969852,-124,-16200,1564,2,A
1781598969874,-252,-16144,1792,2,A
1781598969895,-440,-16212,1960,2,A
1781598969917,-172,-16332,1740,2,A
1781598969939,-32,-16268,1728,2,A
1781598969960,-256,-16092,1676,2,A
1781598969982,-296,-16188,1796,2,A
1781598970003,-140,-16416,1728,2,A
1781598970025,-176,-16280,1800,2,A
1781598970047,-244,-16140,1884,2,A
1781598970068,-200,-16236,1700,2,A
1781598970089,-20,-16280,1596,2,A
1781598970111,-160,-16332,1852,2,A
1781598970133,-268,-16412,1892,2,A
1781598970155,-200,-16296,1804,2,A
1781598970176,-28,-16088,1752,2,A
1781598970198,-220,-16068,2016,2,A
1781598970219,-52,-16332,1752,2,A
1781598970240,-32,-16216,1728,2,A
1781598970262,-48,-16188,1656,2,A
1781598970284,-16,-16164,1696,2,A
1781598970306,-104,-16356,1732,2,A
1781598970327,-4,-16352,1912,2,A
1781598970349,-16,-16068,1680,2,A
1781598970370,-36,-16060,1796,2,A
1781598970391,-100,-16460,1988,2,A
1781598970413,56,-16380,1768,2,A
1781598970434,-64,-16252,1756,2,A
1781598970457,-48,-16032,1652,2,A
1781598970478,-104,-16240,1768,2,A
1781598970499,-176,-16228,1988,2,A
1781598970521,-136,-16336,1876,2,A
1781598970542,-56,-16168,1812,2,A
1781598970564,-152,-16108,1792,2,A
1781598970586,-164,-16352,1852,2,A
1781598970607,-100,-16424,1704,2,A
1781598970629,-148,-16184,1680,2,A
1781598970651,-160,-16160,1720,2,A
1781598970672,-296,-16200,1820,2,A
1781598970694,-248,-16440,1856,2,A
1781598970716,-176,-16208,1868,2,A
1781598970737,-132,-16168,1628,2,A
1781598970758,-252,-16084,1860,2,A
1781598970780,-124,-16452,1752,2,A
1781598970802,-264,-16468,1888,2,A
1781598970823,-256,-16228,1816,2,A
1781598970845,-328,-16632,1792,2,A
1781598970867,292,-16692,1280,2,A
1781598970888,-288,-16048,1912,2,A
1781598970910,-632,-15708,2172,2,A
1781598970931,-564,-15692,2184,2,A
1781598970954,-176,-16276,1792,2,A
1781598970975,64,-16424,1540,2,A
1781598970997,-296,-16304,1892,2,A
1781598971018,-492,-16032,2032,2,A
1781598971040,-612,-16120,1936,2,A
1781598971061,-176,-16488,1604,2,A
1781598971083,-80,-16252,1744,2,A
1781598971105,-312,-15988,1824,2,A
1781598971126,-428,-16260,2092,2,A
1781598971147,8,-16288,1632,2,A
1781598971170,-264,-16280,2000,2,A
1781598971191,-324,-16104,1856,2,A
1781598971213,-232,-16400,1740,2,A
1781598971234,-260,-16048,1648,2,A
1781598971256,-384,-16148,1804,2,A
1781598971278,-392,-16332,1976,2,A
1781598971299,-264,-16476,1716,2,A
1781598971321,-328,-16120,1744,2,A
1781598971343,-372,-16080,1928,2,A
1781598971364,-256,-16200,1836,2,A
1781598971386,-312,-16308,1784,2,A
1781598971409,-336,-16464,1844,2,A
1781598971430,-300,-16624,1792,2,A
1781598971450,-132,-16604,1632,2,A
1781598971472,-436,-16088,1728,2,A
1781598971494,-548,-15836,1820,2,A
1781598971515,-372,-16084,1588,2,A
1781598971537,-500,-16432,1892,2,A
1781598971559,-508,-16456,2092,2,A
1781598971581,-892,-15756,2168,2,A
1781598971603,-456,-15736,1728,2,A
1781598971623,64,-16344,1588,2,A
1781598971645,-408,-16500,2180,2,A
1781598971667,-376,-16300,2216,2,A
1781598971688,-236,-15988,1772,2,A
1781598971710,-356,-16148,1752,2,A
1781598971732,-300,-16320,1660,2,A
1781598971754,-164,-16608,1904,2,A
1781598971776,-628,-16316,2216,2,A
1781598971797,-752,-15792,2232,2,A
1781598971818,-620,-15708,2172,2,A
1781598971840,-448,-15952,1936,2,A
1781598971861,-160,-16416,1816,2,A
1781598971883,-452,-16468,2340,2,A
1781598971905,-668,-16260,2448,2,A
1781598971927,-592,-16192,2236,2,A
1781598971949,-312,-16156,1848,2,A
1781598971970,-552,-16332,2060,2,A
1781598971991,-548,-16208,1964,2,A
1781598972013,-664,-16088,2216,2,A
1781598972035,-200,-16268,1764,2,A
1781598972057,-516,-16352,2352,2,A
1781598972078,-304,-16072,2108,2,A
1781598972100,-152,-16288,1908,2,A
1781598972121,16,-16300,1868,2,A
1781598972144,-1612,-16184,3076,2,A
1781598972165,468,-16232,1468,2,A
1781598972186,228,-16484,1752,2,A
1781598972209,676,-16576,1724,2,A
1781598972231,12,-16740,2024,2,A
1781598972252,1116,-17136,1588,2,A
1781598972274,524,-15888,1776,2,A
1781598972295,-60,-15172,2444,2,A
1781598972316,224,-15812,2000,2,A
1781598972339,888,-16232,1544,2,A
1781598972360,540,-16060,1752,2,A
1781598972381,560,-16208,1768,2,A
1781598972404,472,-16412,1972,2,A
1781598972424,788,-15144,912,2,A
1781598972447,1156,-15980,1568,2,A
1781598972468,1268,-16280,1388,2,A
1781598972489,1216,-16508,1696,2,A
1781598972511,1028,-15960,1588,2,A
1781598972533,916,-16016,1684,2,A
1781598972554,876,-16436,1656,2,A
1781598972576,900,-16288,1612,2,A
1781598972597,636,-15912,1632,2,A
1781598972619,812,-16068,1516,2,A
1781598972641,740,-16136,1660,2,A
1781598972662,436,-16060,1700,2,A
1781598972683,864,-16412,1428,2,A
1781598972705,832,-16384,1572,2,A
1781598972727,504,-16056,1764,2,A
1781598972748,492,-16148,1748,2,A
1781598972770,20,-16224,1988,2,A
1781598972791,820,-15992,1268,2,A
1781598972813,528,-16052,1804,2,A
1781598972834,480,-16204,1712,2,A
1781598972856,464,-16400,1820,2,A
1781598972877,704,-16084,1512,2,A
1781598972900,512,-16292,1748,2,A
1781598972921,440,-16188,1740,2,A
1781598972943,692,-16196,1576,2,A
1781598972964,516,-16156,1520,2,A
1781598972985,812,-16468,1452,2,A
1781598973007,608,-16104,1644,2,A
1781598973029,648,-16256,1556,2,A
1781598973050,600,-16260,1648,2,A
1781598973072,784,-16428,1548,2,A
1781598973093,936,-16276,1380,2,A
1781598973114,644,-16176,1576,2,A
1781598973137,648,-16172,1524,2,A
1781598973158,588,-16124,1508,2,A
1781598973179,840,-16308,1460,2,A
1781598973201,768,-16408,1604,2,A
1781598973223,580,-16364,1652,2,A
1781598973244,648,-16132,1484,2,A
1781598973266,732,-16152,1352,2,A
1781598973287,680,-16228,1500,2,A
1781598973309,508,-16312,1732,2,A
1781598973330,768,-16120,1472,2,A
1781598973352,492,-16152,1496,2,A
1781598973374,596,-16160,1400,2,A
1781598973395,700,-16556,1456,2,A
1781598973417,452,-16248,1672,2,A
1781598973438,436,-16096,1532,2,A
1781598973459,568,-16324,1580,2,A
1781598973481,860,-16252,1344,2,A
1781598973502,372,-16132,1624,2,A
1781598973524,532,-16208,1480,2,A
1781598973546,624,-16240,1292,2,A
1781598973567,588,-16212,1464,2,A
1781598973589,628,-16188,1496,2,A
1781598973610,516,-16180,1368,2,A
1781598973632,496,-16344,1568,2,A
1781598973653,532,-16312,1532,2,A
1781598973675,404,-16096,1580,2,A
1781598973696,396,-16152,1608,2,A
1781598973718,728,-16260,1400,2,A
1781598973739,724,-16320,1500,2,A
1781598973761,436,-16044,1584,2,A
1781598973782,340,-16180,1692,2,A
1781598973804,600,-16052,1340,2,A
1781598973826,648,-16268,1492,2,A
1781598973847,612,-16144,1464,2,A
1781598973868,424,-16248,1584,2,A
1781598973891,632,-16168,1400,2,A
1781598973912,396,-16124,1528,2,A
1781598973933,560,-16220,1364,2,A
1781598973955,532,-16404,1492,2,A
1781598973977,600,-16228,1524,2,A
1781598973998,516,-16104,1472,2,A
1781598974020,544,-16172,1508,2,A
1781598974041,628,-16248,1376,2,A
1781598974063,536,-16284,1532,2,A
1781598974084,336,-16204,1656,2,A
1781598974106,416,-16156,1616,2,A
1781598974128,456,-16024,1344,2,A
1781598974149,800,-16476,1188,2,A
1781598974171,508,-16220,1604,2,A
1781598974192,456,-16144,1584,2,A
1781598974213,604,-16200,1424,2,A
1781598974235,492,-16300,1556,2,A
1781598974256,508,-16160,1524,2,A
1781598974279,372,-16112,1388,2,A
1781598974300,676,-16252,1324,2,A
1781598974321,556,-16308,1476,2,A
1781598974343,420,-16180,1536,2,A
1781598974364,524,-16104,1424,2,A
1781598974386,500,-16124,1448,2,A
1781598974408,468,-16224,1564,2,A
1781598974430,380,-16160,1612,2,A
1781598974451,504,-16332,1380,2,A
1781598974473,596,-16284,1376,2,A
1781598974494,360,-16716,1612,2,A
1781598974515,440,-16104,1360,2,A
1781598974537,352,-16120,1584,2,A
1781598974558,428,-16192,1532,2,A
1781598974580,508,-16340,1536,2,A
1781598974601,572,-16292,1332,2,A
1781598974623,488,-16252,1468,2,A
1781598974645,348,-16176,1592,2,A
1781598974666,348,-16168,1516,2,A
1781598974688,500,-16292,1556,2,A
1781598974709,548,-16368,1360,2,A
1781598974731,380,-16228,1436,2,A
1781598974753,196,-16196,1592,2,A
1781598974774,380,-16328,1580,2,A
1781598974796,404,-16224,1508,2,A
1781598974818,256,-16184,1628,2,A
1781598974839,428,-16176,1392,2,A
1781598974860,432,-16252,1588,2,A
1781598974882,396,-16288,1484,2,A
1781598974904,200,-16240,1556,2,A
1781598974925,584,-16320,1340,2,A
1781598974947,456,-16060,1408,2,A
1781598974968,200,-16240,1656,2,A
1781598974990,528,-16424,1480,2,A
1781598975010,448,-16176,1424,2,A
1781598975032,336,-16060,1452,2,A
1781598975055,360,-16364,1596,2,A
1781598975076,460,-16428,1540,2,A
1781598975097,512,-16220,1404,2,A
1781598975119,552,-16064,1368,2,A
1781598975141,312,-16132,1696,2,A
1781598975163,396,-16300,1652,2,A
1781598975184,528,-16420,1620,2,A
1781598975205,568,-16288,1408,2,A
1781598975227,588,-16204,1220,2,A
1781598975249,508,-16092,1336,2,A
1781598975271,648,-16256,1324,2,A
1781598975291,532,-16200,1448,2,A
1781598975313,636,-16100,1480,2,A
1781598975334,540,-16368,1628,2,A
1781598975356,592,-16124,1548,2,A
1781598975379,508,-16204,1544,2,A
1781598975399,552,-16252,1424,2,A
1781598975421,708,-16200,1312,2,A
1781598975442,700,-16348,1320,2,A
1781598975463,544,-16304,1548,2,A
1781598975485,612,-16172,1524,2,A
1781598975507,796,-16224,1428,2,A
1781598975528,580,-16328,1548,2,A
1781598975550,588,-16260,1492,2,A
1781598975571,656,-16152,1356,2,A
1781598975593,592,-16100,1388,2,A
1781598975615,456,-16152,1592,2,A
1781598975636,684,-16364,1408,2,A
1781598975658,584,-16184,1440,2,A
1781598975680,656,-16100,1564,2,A
1781598975701,412,-16244,1496,2,A
1781598975723,908,-16364,1300,2,A
1781598975744,616,-16244,1432,2,A
1781598975765,668,-16272,1444,2,A
1781598975787,600,-16244,1444,2,A
1781598975809,564,-16224,1364,2,A
1781598975830,372,-16080,1560,2,A
1781598975852,656,-16348,1308,2,A
1781598975874,600,-16244,1436,2,A
1781598975895,612,-16180,1388,2,A
1781598975916,464,-16184,1664,2,A
1781598975938,484,-16100,1536,2,A
1781598975960,624,-16164,1456,2,A
1781598975982,660,-16380,1412,2,A
1781598976003,576,-16252,1504,2,A
1781598976024,460,-16196,1548,2,A
1781598976046,524,-16304,1448,2,A
1781598976068,584,-16360,1440,2,A
1781598976090,452,-16304,1564,2,A
1781598976111,508,-15992,1488,2,A
1781598976132,592,-16212,1444,2,A
1781598976154,644,-16460,1516,2,A
1781598976175,476,-16380,1684,2,A
1781598976197,460,-16020,1436,2,A
1781598976218,384,-16012,1368,2,A
1781598976239,572,-16308,1480,2,A
1781598976261,408,-16372,1720,2,A
1781598976284,600,-16344,1472,2,A
1781598976305,436,-16216,1512,2,A
1781598976326,172,-16140,1772,2,A
1781598976348,348,-16216,1592,2,A
1781598976369,888,-16296,1228,2,A
1781598976390,664,-16236,1380,2,A
1781598976413,612,-16356,1468,2,A
1781598976433,528,-16076,1440,2,A
1781598976455,744,-16396,1324,2,A
1781598976477,608,-16160,1320,2,A
1781598976499,500,-16224,1648,2,A
1781598976520,404,-16200,1664,2,A
1781598976541,588,-16312,1568,2,A
1781598976564,512,-16236,1492,2,A
1781598976585,612,-16284,1364,2,A
1781598976606,452,-16236,1512,2,A
1781598976629,524,-16264,1452,2,A
1781598976649,372,-16316,1572,2,A
1781598976671,436,-16272,1516,2,A
1781598976693,404,-16200,1616,2,A
1781598976714,480,-16284,1552,2,A
1781598976736,364,-16212,1708,2,A
1781598976757,604,-16212,1476,2,A
1781598976778,344,-16196,1648,2,A
1781598976801,612,-16372,1424,2,A
1781598976822,380,-16208,1532,2,A
1781598976843,408,-16068,1564,2,A
1781598976865,336,-16096,1564,2,A
1781598976887,532,-16232,1404,2,A
1781598976909,412,-16212,1556,2,A
1781598976929,420,-16240,1704,2,A
1781598976951,468,-16324,1412,2,A
1781598976973,396,-16252,1584,2,A
1781598976994,344,-16140,1512,2,A
1781598977016,528,-16364,1520,2,A
1781598977038,324,-16180,1656,2,A
1781598977059,344,-16160,1528,2,A
1781598977081,376,-16292,1596,2,A
1781598977103,364,-16308,1668,2,A
1781598977124,292,-16204,1680,2,A
1781598977145,488,-16276,1428,2,A
1781598977167,472,-16204,1520,2,A
1781598977189,324,-16316,1684,2,A
1781598977210,216,-16164,1592,2,A
1781598977232,484,-16296,1444,2,A
1781598977253,496,-16200,1496,2,A
1781598977275,364,-16108,1556,2,A
1781598977296,468,-16372,1664,2,A
1781598977317,596,-16260,1408,2,A
1781598977339,292,-16104,1484,2,A
1781598977361,304,-16148,1728,2,A
1781598977383,352,-16300,1500,2,A
1781598977404,472,-16348,1344,2,A
1781598977426,472,-16216,1652,2,A
1781598977447,396,-16248,1692,2,A
1781598977468,248,-16228,1764,2,A
1781598977491,356,-16284,1556,2,A
1781598977511,428,-16372,1464,2,A
1781598977533,312,-16276,1652,2,A
1781598977555,128,-16132,1756,2,A
1781598977576,360,-16088,1444,2,A
1781598977598,512,-16380,1536,2,A
1781598977619,432,-16268,1772,2,A
1781598977641,68,-16056,1732,2,A
1781598977663,540,-16160,1260,2,A
1781598977684,384,-16332,1452,2,A
1781598977705,396,-16332,1712,2,A
1781598977727,316,-16260,1576,2,A
1781598977749,292,-16152,1504,2,A
1781598977770,280,-16308,1524,2,A
1781598977792,288,-16252,1608,2,A
1781598977815,396,-16248,1440,2,A
1781598977835,440,-16272,1436,2,A
1781598977856,120,-16180,1680,2,A
1781598977878,508,-16332,1444,2,A
1781598977900,448,-16172,1416,2,A
1781598977922,260,-16184,1576,2,A
1781598977944,432,-16228,1524,2,A
1781598977965,276,-16360,1620,2,A
1781598977987,384,-16180,1568,2,A
1781598978008,196,-16220,1680,2,A
1781598978029,520,-16296,1428,2,A
1781598978051,392,-16088,1468,2,A
1781598978072,384,-16224,1544,2,A
1781598978094,404,-16328,1512,2,A
1781598978116,300,-16164,1564,2,A
1781598978137,276,-16164,1564,2,A
1781598978159,364,-16356,1616,2,A
1781598978182,384,-16236,1468,2,A
1781598978204,368,-16260,1468,2,A
1781598978225,388,-16324,1604,2,A
1781598978246,388,-16104,1596,2,A
1781598978269,324,-16224,1668,2,A
1781598978290,408,-16340,1540,2,A
1781598978311,568,-16412,1428,2,A
1781598978332,216,-16332,1620,2,A
1781598978354,300,-16232,1568,2,A
1781598978376,388,-16188,1596,2,A
1781598978397,164,-16200,1716,2,A
1781598978418,324,-16156,1584,2,A
1781598978440,536,-16212,1436,2,A
1781598978462,420,-16240,1500,2,A
1781598978484,368,-16108,1668,2,A
1781598978505,196,-16256,1632,2,A
1781598978526,220,-16416,1548,2,A
1781598978548,164,-16252,1588,2,A
1781598978569,432,-16108,1368,2,A
1781598978591,356,-16244,1580,2,A
1781598978613,696,-16224,1404,2,A
1781598978634,632,-16208,1344,2,A
1781598978656,512,-16176,1584,2,A
1781598978677,472,-16272,1492,2,A
1781598978699,492,-16256,1444,2,A
1781598978721,276,-16232,1408,2,A
1781598978742,436,-16180,1476,2,A
1781598978764,444,-16296,1428,2,A
1781598978786,500,-16316,1360,2,A
1781598978807,556,-16340,1480,2,A
1781598978829,524,-16184,1476,2,A
1781598978850,460,-16188,1504,2,A
1781598978871,316,-16200,1488,2,A
1781598978893,236,-16268,1492,2,A
1781598978914,392,-16184,1468,2,A
1781598978937,312,-16348,1556,2,A
1781598978958,380,-16300,1552,2,A
1781598978979,444,-16132,1448,2,A
1781598979001,396,-16136,1500,2,A
1781598979022,332,-16420,1676,2,A
1781598979044,448,-16448,1580,2,A
1781598979065,392,-16124,1428,2,A
1781598979087,544,-16256,1416,2,A
1781598979109,588,-16308,1464,2,A
1781598979130,460,-16192,1708,2,A
1781598979152,452,-16080,1512,2,A
1781598979173,464,-16156,1480,2,A
1781598979195,444,-16372,1564,2,A
1781598979217,512,-16260,1600,2,A
1781598979238,576,-16240,1460,2,A
1781598979260,424,-16256,1668,2,A
1781598979281,424,-16124,1652,2,A
1781598979302,588,-16300,1284,2,A
1781598979324,620,-16156,1492,2,A
1781598979346,400,-16236,1588,2,A
1781598979367,512,-16200,1524,2,A
1781598979389,444,-16144,1476,2,A
1781598979411,392,-16320,1568,2,A
1781598979432,464,-16224,1520,2,A
1781598979453,420,-16240,1600,2,A
1781598979475,440,-16200,1528,2,A
1781598979496,404,-16356,1608,2,A
1781598979518,312,-16124,1492,2,A
1781598979539,488,-16340,1528,2,A
1781598979561,508,-16128,1512,2,A
1781598979582,456,-16076,1548,2,A
1781598979604,448,-16292,1584,2,A
1781598979626,584,-16248,1548,2,A
1781598979648,392,-16096,1544,2,A
1781598979669,524,-16284,1576,2,A
1781598979690,532,-16244,1492,2,A
1781598979712,424,-16276,1500,2,A
1781598979733,220,-16108,1640,2,A
1781598979755,432,-16108,1644,2,A
1781598979777,440,-16140,1660,2,A
1781598979798,464,-16348,1632,2,A
1781598979820,600,-16308,1464,2,A
1781598979842,572,-16364,1364,2,A
1781598979863,436,-16128,1616,2,A
1781598979885,192,-16212,1580,2,A
1781598979906,632,-16328,1500,2,A
1781598979928,360,-16184,1728,2,A
1781598979949,268,-16128,1736,2,A
1781598979971,456,-16240,1548,2,A
1781598979993,580,-16408,1528,2,A
1781598980015,540,-16192,1628,2,A
1781598980036,328,-16220,1744,2,A
1781598980057,520,-16312,1524,2,A
1781598980079,332,-16216,1672,2,A
1781598980100,448,-16176,1632,2,A
1781598980122,540,-16084,1504,2,A
1781598980143,320,-16360,1720,2,A
1781598980165,368,-16188,1580,2,A
1781598980187,408,-16284,1544,2,A
1781598980208,552,-16228,1568,2,A
1781598980229,344,-16360,1644,2,A
1781598980251,464,-16144,1600,2,A
1781598980272,344,-16124,1708,2,A
1781598980294,404,-16336,1544,2,A
1781598980316,360,-16164,1612,2,A
1781598980337,356,-16248,1596,2,A
1781598980359,404,-16248,1500,2,A
1781598980380,420,-16340,1664,2,A
1781598980403,584,-16232,1496,2,A
1781598980423,432,-16304,1636,2,A
1781598980445,412,-16156,1656,2,A
1781598980467,316,-16128,1756,2,A
1781598980488,444,-16160,1536,2,A
1781598980510,512,-16312,1504,2,A
1781598980532,452,-16216,1512,2,A
1781598980553,548,-16220,1496,2,A
1781598980574,476,-16120,1648,2,A
1781598980596,552,-16388,1432,2,A
1781598980617,416,-16288,1524,2,A
1781598980639,532,-16136,1464,2,A
1781598980660,572,-16272,1588,2,A
1781598980682,540,-16340,1508,2,A
1781598980704,404,-16260,1564,2,A
1781598980725,560,-16120,1380,2,A
1781598980747,348,-16344,1620,2,A
1781598980768,312,-16184,1616,2,A
1781598980790,512,-16192,1568,2,A
1781598980812,444,-16208,1648,2,A
1781598980833,576,-16148,1488,2,A
1781598980855,756,-16192,1448,2,A
1781598980876,620,-16204,1520,2,A
1781598980898,428,-16184,1684,2,A
1781598980919,360,-16152,1600,2,A
1781598980941,636,-16264,1448,2,A
1781598980963,412,-16244,1588,2,A
1781598980985,580,-16280,1520,2,A
1781598981006,640,-16208,1416,2,A
1781598981028,632,-16244,1480,2,A
1781598981049,560,-16388,1500,2,A
1781598981071,632,-16392,1488,2,A
1781598981092,468,-16080,1488,2,A
1781598981113,420,-15896,1600,2,A
1781598981135,664,-16492,1436,2,A
1781598981157,744,-16372,1432,2,A
1781598981178,704,-16144,1280,2,A
1781598981200,480,-16128,1584,2,A
1781598981222,528,-16296,1576,2,A
1781598981243,560,-16240,1504,2,A
1781598981264,644,-16296,1492,2,A
1781598981286,652,-16336,1364,2,A
1781598981307,344,-16312,1572,2,A
1781598981329,416,-16128,1416,2,A
1781598981350,504,-16320,1496,2,A
1781598981372,612,-16228,1432,2,A
1781598981394,448,-16152,1648,2,A
1781598981415,396,-16300,1580,2,A
1781598981437,548,-16104,1328,2,A
1781598981458,564,-16220,1488,2,A
1781598981480,664,-16412,1372,2,A
1781598981501,600,-16260,1548,2,A
1781598981523,388,-16104,1660,2,A
1781598981544,588,-16212,1528,2,A
1781598981566,692,-16296,1472,2,A
1781598981588,636,-16256,1436,2,A
1781598981609,592,-16348,1564,2,A
1781598981631,644,-16240,1512,2,A
1781598981652,644,-16120,1312,2,A
1781598981674,576,-16128,1556,2,A
1781598981695,552,-16248,1548,2,A
1781598981717,780,-16252,1512,2,A
1781598981739,580,-16196,1540,2,A
1781598981760,556,-16252,1560,2,A
1781598981782,628,-16232,1544,2,A
1781598981803,640,-16160,1436,2,A
1781598981825,552,-16176,1508,2,A
1781598981846,448,-16240,1636,2,A
1781598981868,680,-16264,1564,2,A
1781598981889,528,-16192,1464,2,A
1781598981911,648,-16372,1464,2,A
1781598981933,584,-16292,1472,2,A
1781598981954,532,-16108,1528,2,A
1781598981976,396,-16136,1720,2,A
1781598981998,684,-16272,1396,2,A
1781598982019,572,-16292,1640,2,A
1781598982040,904,-16044,1236,2,A
1781598982062,980,-16388,1396,2,A
1781598982084,720,-16080,1348,2,A
1781598982106,588,-16164,1572,2,A
1781598982127,544,-16284,1608,2,A
1781598982148,704,-16176,1396,2,A
1781598982170,624,-16224,1572,2,A
1781598982191,764,-16240,1544,2,A
1781598982213,684,-16296,1608,2,A
1781598982235,908,-16188,1412,2,A
1781598982256,812,-16216,1440,2,A
1781598982278,704,-16160,1560,2,A
1781598982299,772,-16188,1356,2,A
1781598982320,804,-16216,1416,2,A
1781598982342,728,-16128,1392,2,A
1781598982364,876,-16392,1480,2,A
1781598982385,808,-16188,1524,2,A
1781598982407,656,-16108,1420,2,A
1781598982429,584,-16084,1472,2,A
1781598982450,748,-16184,1496,2,A
1781598982472,736,-16284,1420,2,A
1781598982494,784,-16304,1528,2,A
1781598982515,624,-16188,1564,2,A
1781598982535,688,-16164,1516,2,A
1781598982558,720,-16156,1496,2,A
1781598982579,668,-16344,1416,2,A
1781598982601,716,-16316,1540,2,A
1781598982623,656,-16176,1564,2,A
1781598982644,612,-16180,1520,2,A
1781598982665,648,-16072,1424,2,A
1781598982687,572,-16352,1464,2,A
1781598982709,736,-16220,1452,2,A
1781598982731,736,-16140,1460,2,A
1781598982766,820,-16172,1548,2,A
1781598982773,748,-16228,1464,2,A
1781598982795,736,-16060,1400,2,A
1781598982816,728,-16256,1564,2,A
1781598982838,748,-16312,1412,2,A
1781598982859,840,-16224,1396,2,A
1781598982881,700,-16116,1364,2,A
1781598982902,648,-16140,1536,2,A
1781598982924,720,-16136,1416,2,A
1781598982946,588,-16356,1608,2,A
1781598982967,616,-16196,1608,2,A
1781598982989,548,-16076,1520,2,A
1781598983011,764,-16240,1408,2,A
1781598983032,1012,-16352,1300,2,A
1781598983054,660,-16204,1400,2,A
1781598983075,516,-16172,1580,2,A
1781598983097,612,-16200,1620,2,A
1781598983118,684,-16156,1392,2,A
1781598983140,524,-16216,1504,2,A
1781598983162,492,-16200,1704,2,A
1781598983184,604,-16160,1500,2,A
1781598983205,704,-16240,1464,2,A
1781598983226,680,-16316,1524,2,A
1781598983248,488,-16180,1624,2,A
1781598983269,564,-16228,1456,2,A
1781598983290,528,-16280,1496,2,A
1781598983312,564,-16268,1460,2,A
1781598983334,504,-16192,1588,2,A
1781598983356,636,-16308,1544,2,A
1781598983377,688,-16272,1492,2,A
1781598983399,648,-16148,1496,2,A
1781598983421,500,-16184,1580,2,A
1781598983442,496,-16388,1612,2,A
1781598983464,616,-16156,1504,2,A
1781598983485,492,-16248,1476,2,A
1781598983506,780,-16344,1372,2,A
1781598983529,552,-16176,1552,2,A
1781598983550,580,-16248,1512,2,A
1781598983571,640,-16228,1568,2,A
1781598983593,548,-16124,1488,2,A
1781598983614,320,-16080,1600,2,A
1781598983636,564,-16328,1424,2,A
1781598983658,660,-16348,1412,2,A
1781598983679,508,-16256,1500,2,A
1781598983701,464,-16180,1440,2,A
1781598983722,532,-16164,1552,2,A
1781598983743,460,-16244,1564,2,A
1781598983765,544,-16252,1520,2,A
1781598983787,536,-16208,1420,2,A
1781598983809,500,-16256,1516,2,A
1781598983830,616,-16268,1508,2,A
1781598983851,524,-16256,1568,2,A
1781598983873,580,-16164,1408,2,A
1781598983894,580,-16256,1552,2,A
1781598983916,580,-16316,1532,2,A
1781598983937,576,-16152,1516,2,A
1781598983960,704,-16260,1468,2,A
1781598983981,516,-16348,1652,2,A
1781598984003,384,-16240,1632,2,A
1781598984024,688,-16132,1460,2,A
1781598984046,524,-16256,1508,2,A
1781598984068,680,-16268,1492,2,A
1781598984089,508,-16240,1640,2,A
1781598984110,384,-16228,1696,2,A
1781598984132,616,-16192,1284,2,A
1781598984154,656,-16084,1384,2,A
1781598984176,616,-16188,1672,2,A
1781598984198,692,-16404,1500,2,A
1781598984220,592,-16216,1376,2,A
1781598984241,540,-16112,1504,2,A
1781598984263,364,-16252,1620,2,A
1781598984284,744,-16372,1364,2,A
1781598984306,676,-16128,1484,2,A
1781598984327,492,-16348,1672,2,A
1781598984349,548,-16188,1596,2,A
1781598984370,644,-16136,1576,2,A
1781598984392,428,-16156,1564,2,A
1781598984413,764,-16488,1428,2,A
1781598984436,800,-16324,1320,2,A
1781598984457,396,-16128,1588,2,A
1781598984479,448,-16260,1580,2,A
1781598984500,712,-16056,1308,2,A
1781598984521,572,-16360,1524,2,A
1781598984543,656,-16348,1560,2,A
1781598984564,584,-16112,1372,2,A
1781598984586,500,-16092,1536,2,A
1781598984608,588,-16272,1456,2,A
1781598984629,596,-16352,1448,2,A
1781598984651,436,-16276,1536,2,A
1781598984673,304,-16204,1684,2,A
1781598984694,616,-16264,1444,2,A
1781598984715,580,-16260,1388,2,A
1781598984737,564,-16296,1580,2,A
1781598984759,492,-16140,1552,2,A
1781598984780,504,-16132,1576,2,A
1781598984801,556,-16188,1496,2,A
1781598984823,564,-16252,1516,2,A
1781598984844,468,-16276,1572,2,A
1781598984866,592,-16312,1460,2,A
1781598984888,412,-16296,1608,2,A
1781598984909,548,-16224,1596,2,A
1781598984931,572,-16224,1524,2,A
1781598984952,560,-16292,1460,2,A
1781598984974,588,-16348,1632,2,A
1781598984996,592,-16216,1632,2,A
1781598985018,432,-15960,1620,2,A
1781598985039,708,-16324,1380,2,A
1781598985060,512,-16284,1656,2,A
1781598985082,624,-16132,1556,2,A
1781598985103,616,-16160,1556,2,A
1781598985125,620,-16228,1656,2,A
1781598985146,408,-16060,1616,2,A
1781598985168,496,-16152,1528,2,A
1781598985190,520,-16292,1596,2,A
1781598985211,620,-16392,1568,2,A
1781598985232,512,-16168,1636,2,A
1781598985255,608,-16260,1468,2,A
1781598985276,368,-16188,1652,2,A
1781598985297,512,-16256,1580,2,A
1781598985319,432,-16128,1628,2,A
1781598985341,740,-16224,1320,2,A
1781598985362,536,-16280,1408,2,A
1781598985383,532,-16412,1512,2,A
1781598985406,276,-16156,1736,2,A
1781598985426,468,-16048,1452,2,A
1781598985448,472,-16328,1580,2,A
1781598985470,580,-16504,1584,2,A
1781598985490,472,-16236,1604,2,A
1781598985513,552,-15972,1484,2,A
1781598985534,336,-16224,1652,2,A
1781598985556,508,-16236,1560,2,A
1781598985578,480,-16264,1600,2,A
1781598985599,528,-16296,1584,2,A
1781598985621,480,-16216,1584,2,A
1781598985642,468,-16300,1636,2,A
1781598985664,424,-16084,1384,2,A
1781598985685,428,-16200,1532,2,A
1781598985707,428,-16296,1608,2,A
1781598985729,532,-16196,1552,2,A
1781598985749,664,-16252,1492,2,A
1781598985771,620,-16204,1576,2,A
1781598985793,416,-16128,1660,2,A
1781598985815,456,-16236,1468,2,A
1781598985836,600,-16296,1556,2,A
1781598985859,460,-16156,1828,2,A
1781598985880,556,-16288,1636,2,A
1781598985901,584,-16284,1620,2,A
1781598985922,496,-16108,1652,2,A
1781598985944,460,-16276,1656,2,A
1781598985966,640,-16404,1528,2,A
1781598985987,556,-16320,1460,2,A
1781598986009,476,-16104,1608,2,A
1781598986030,312,-16224,1620,2,A
1781598986052,476,-16168,1632,2,A
1781598986074,448,-16232,1492,2,A
1781598986095,496,-16236,1620,2,A
1781598986117,376,-16276,1724,2,A
1781598986139,568,-16152,1652,2,A
1781598986160,556,-16044,1396,2,A
1781598986181,804,-16264,1368,2,A
1781598986203,700,-16312,1564,2,A
1781598986224,424,-16200,1764,2,A
1781598986246,600,-16232,1588,2,A
1781598986268,576,-16228,1468,2,A
1781598986289,440,-16176,1708,2,A
1781598986311,600,-16364,1592,2,A
1781598986332,600,-16308,1592,2,A
1781598986354,692,-16188,1400,2,A
1781598986375,476,-16108,1624,2,A
1781598986397,536,-16252,1540,2,A
1781598986419,460,-16208,1684,2,A
1781598986441,536,-16208,1680,2,A
1781598986461,584,-16264,1524,2,A
1781598986483,640,-16300,1424,2,A
1781598986505,452,-16288,1640,2,A
1781598986526,544,-16328,1496,2,A
1781598986548,500,-16248,1516,2,A
1781598986569,444,-16020,1516,2,A
1781598986590,664,-16364,1496,2,A
1781598986612,496,-16400,1588,2,A
1781598986634,608,-16072,1620,2,A
1781598986656,432,-16156,1736,2,A
1781598986677,752,-16172,1416,2,A
1781598986699,620,-16264,1500,2,A
1781598986720,692,-16392,1520,2,A
1781598986742,648,-16292,1612,2,A
1781598986764,508,-16164,1584,2,A
1781598986785,524,-16296,1548,2,A
1781598986806,560,-16180,1640,2,A
1781598986829,592,-16244,1492,2,A
1781598986850,712,-16276,1528,2,A
1781598986871,560,-16276,1624,2,A
1781598986892,576,-16056,1528,2,A
1781598986914,600,-16160,1476,2,A
1781598986936,716,-16360,1448,2,A
1781598986957,588,-16232,1520,2,A
1781598986979,600,-16104,1444,2,A
1781598987000,620,-16100,1588,2,A
1781598987022,464,-16156,1652,2,A
1781598987044,712,-16220,1456,2,A
1781598987066,524,-16368,1616,2,A
1781598987087,740,-16196,1536,2,A
1781598987108,440,-16116,1632,2,A
1781598987130,608,-16176,1460,2,A
1781598987150,560,-16344,1600,2,A
1781598987173,488,-16184,1692,2,A
1781598987194,436,-16164,1520,2,A
1781598987217,664,-16192,1576,2,A
1781598987237,500,-16152,1716,2,A
1781598987259,544,-16180,1584,2,A
1781598987281,772,-16424,1300,2,A
1781598987302,500,-16224,1600,2,A
1781598987324,288,-16228,1728,2,A
1781598987346,240,-16160,1640,2,A
1781598987367,632,-16456,1320,2,A
1781598987388,680,-16372,1496,2,A
1781598987409,520,-16156,1712,2,A
1781598987431,664,-16208,1564,2,A
1781598987453,552,-16240,1556,2,A
1781598987475,488,-16144,1664,2,A
1781598987497,232,-16384,1696,2,A
1781598987518,656,-16336,1548,2,A
1781598987540,528,-16216,1596,2,A
1781598987561,536,-15992,1536,2,A
1781598987583,384,-16224,1768,2,A
1781598987604,580,-16236,1532,2,A
1781598987626,596,-16308,1592,2,A
1781598987647,500,-16168,1568,2,A
1781598987669,504,-16152,1636,2,A
1781598987691,552,-16124,1548,2,A
1781598987711,584,-16388,1512,2,A
1781598987734,600,-16264,1496,2,A
1781598987755,268,-16268,1808,2,A
1781598987776,488,-16180,1452,2,A
1781598987798,512,-16228,1488,2,A
1781598987820,504,-16268,1544,2,A
1781598987841,488,-16136,1576,2,A
1781598987862,480,-16200,1412,2,A
1781598987884,356,-16184,1692,2,A
1781598987906,396,-16248,1588,2,A
1781598987928,452,-16304,1572,2,A
1781598987949,668,-16216,1388,2,A
1781598987971,480,-16260,1604,2,A
1781598987992,312,-16328,1708,2,A
1781598988014,228,-16176,1620,2,A
1781598988036,500,-16156,1496,2,A
1781598988057,448,-16100,1504,2,A
1781598988079,388,-16276,1664,2,A
1781598988100,412,-16292,1656,2,A
1781598988121,436,-16172,1600,2,A
1781598988143,320,-16200,1628,2,A
1781598988168,612,-16344,1468,2,A
1781598988186,512,-16160,1652,2,A
1781598988207,396,-16176,1596,2,A
1781598988229,688,-16288,1504,2,A
1781598988250,460,-16256,1480,2,A
1781598988272,208,-16136,1868,2,A
1781598988294,472,-16180,1468,2,A
1781598988315,488,-16292,1600,2,A
1781598988337,676,-16248,1340,2,A
1781598988359,284,-16184,1612,2,A
1781598988380,320,-16144,1700,2,A
1781598988402,312,-16172,1644,2,A
1781598988424,580,-16336,1432,2,A
1781598988445,408,-16244,1572,2,A
1781598988466,480,-16204,1592,2,A
1781598988488,496,-16116,1548,2,A
1781598988509,384,-16196,1584,2,A
1781598988531,544,-16276,1608,2,A
1781598988553,308,-16364,1696,2,A
1781598988574,520,-16164,1432,2,A
1781598988595,492,-16280,1564,2,A
1781598988618,340,-16084,1692,2,A
1781598988639,596,-16320,1536,2,A
1781598988660,852,-16256,1144,2,A
1781598988682,676,-16180,1412,2,A
1781598988703,412,-16216,1664,2,A
1781598988725,476,-16228,1552,2,A
1781598988747,532,-16248,1336,2,A
1781598988768,660,-16240,1460,2,A
1781598988790,352,-16252,1692,2,A
1781598988811,308,-16308,1552,2,A
1781598988833,496,-16184,1564,2,A
1781598988854,512,-16160,1428,2,A
1781598988877,472,-16356,1504,2,A
1781598988898,548,-16148,1436,2,A
1781598988919,188,-15956,1716,2,A
1781598988941,340,-16036,1488,2,A
1781598988963,784,-16484,1240,2,A
1781598988984,628,-16336,1432,2,A
1781598989005,352,-16124,1740,2,A
1781598989028,480,-16184,1592,2,A
1781598989049,676,-16156,1448,2,A
1781598989070,452,-16380,1624,2,A
1781598989092,480,-16440,1592,2,A
1781598989113,596,-16268,1380,2,A
1781598989135,552,-16120,1476,2,A
1781598989156,344,-16304,1684,2,A
1781598989178,344,-16184,1620,2,A
1781598989199,428,-16064,1660,2,A
1781598989221,544,-16212,1180,2,A
1781598989242,456,-16396,1560,2,A
1781598989269,360,-16452,1804,2,A
1781598989286,456,-16260,1464,2,A
1781598989307,420,-16036,1344,2,A
1781598989328,528,-16144,1360,2,A
1781598989350,436,-16328,1504,2,A
1781598989372,484,-16188,1532,2,A
1781598989393,564,-16156,1412,2,A
1781598989415,552,-16152,1388,2,A
1781598989437,208,-16196,1800,2,A
1781598989458,476,-16248,1476,2,A
1781598989480,524,-16120,1448,2,A
1781598989502,484,-16256,1468,2,A
1781598989523,500,-16328,1560,2,A
1781598989544,400,-16260,1568,2,A
1781598989565,356,-16160,1680,2,A
1781598989587,464,-16172,1488,2,A
1781598989609,516,-16316,1620,2,A
1781598989631,636,-16376,1480,2,A
1781598989652,444,-16228,1616,2,A
1781598989673,300,-16084,1528,2,A
1781598989695,364,-16128,1708,2,A
1781598989717,560,-16432,1548,2,A
1781598989738,656,-16312,1552,2,A
1781598989759,548,-16332,1556,2,A
1781598989781,304,-16352,1712,2,A
1781598989803,284,-16084,1648,2,A
1781598989824,468,-16040,1348,2,A
1781598989846,540,-16216,1464,2,A
1781598989867,476,-16588,1572,2,A
1781598989889,516,-16364,1560,2,A
1781598989910,312,-16232,1760,2,A
1781598989932,536,-16064,1500,2,A
1781598989954,348,-16156,1588,2,A
1781598989975,460,-16328,1692,2,A
1781598989998,444,-16152,1572,2,A
1781598990019,412,-16120,1600,2,A
1781598990040,552,-16236,1448,2,A
1781598990061,484,-16336,1584,2,A
1781598990083,480,-16216,1540,2,A
1781598990105,608,-16140,1432,2,A
1781598990127,272,-16252,1792,2,A
1781598990148,468,-16396,1728,2,A
1781598990171,468,-16264,1552,2,A
1781598990192,428,-16156,1620,2,A
1781598990214,472,-16132,1548,2,A
1781598990236,512,-16160,1556,2,A
1781598990257,488,-16320,1504,2,A
1781598990279,380,-16196,1588,2,A
1781598990300,352,-16236,1660,2,A
1781598990321,492,-16220,1532,2,A
1781598990344,416,-16276,1592,2,A
1781598990365,436,-16244,1516,2,A
1781598990387,336,-16132,1692,2,A
1781598990408,492,-16224,1640,2,A
1781598990430,528,-16260,1508,2,A
1781598990451,440,-16352,1516,2,A
1781598990472,392,-16140,1652,2,A
1781598990494,492,-16236,1520,2,A
1781598990516,420,-16252,1748,2,A
1781598990538,444,-16076,1580,2,A
1781598990559,348,-16324,1656,2,A
1781598990580,368,-16152,1612,2,A
1781598990602,112,-16084,1880,2,A
1781598990623,212,-16184,1820,2,A
1781598990645,548,-16312,1516,2,A
1781598990666,528,-16096,1552,2,A
1781598990688,368,-16196,1612,2,A
1781598990710,388,-16148,1692,2,A
1781598990731,456,-16228,1580,2,A
1781598990753,484,-16260,1548,2,A
1781598990775,376,-16112,1532,2,A
1781598990796,404,-16196,1596,2,A
1781598990818,472,-16100,1568,2,A
1781598990839,456,-16188,1568,2,A
1781598990861,384,-16228,1632,2,A
1781598990882,100,-16116,1892,2,A
1781598990904,396,-16180,1516,2,A
1781598990925,324,-16324,1520,2,A
1781598990946,268,-16472,1860,2,A
1781598990968,300,-16016,1672,2,A
1781598990990,424,-15960,1452,2,A
1781598991012,368,-16220,1580,2,A
1781598991033,416,-16380,1728,2,A
1781598991055,568,-16220,1508,2,A
1781598991077,544,-16180,1452,2,A
1781598991098,492,-16304,1540,2,A
1781598991119,284,-16284,1600,2,A
1781598991141,208,-16156,1576,2,A
1781598991162,440,-16144,1340,2,A
1781598991185,548,-16208,1444,2,A
1781598991206,352,-16288,1684,2,A
1781598991227,424,-16300,1632,2,A
1781598991248,444,-16244,1544,2,A
1781598991270,312,-16080,1624,2,A
1781598991292,320,-16240,1480,2,A
1781598991314,500,-16252,1456,2,A
1781598991335,352,-16236,1520,2,A
1781598991356,516,-16224,1540,2,A
1781598991379,528,-16324,1548,2,A
1781598991400,480,-16264,1656,2,A
1781598991421,344,-16260,1568,2,A
1781598991443,504,-16344,1580,2,A
1781598991464,536,-16264,1468,2,A
1781598991486,360,-16164,1640,2,A
1781598991507,452,-16108,1616,2,A
1781598991529,460,-16188,1548,2,A
1781598991550,532,-16328,1404,2,A
1781598991573,424,-16244,1416,2,A
1781598991593,100,-16096,1856,2,A
1781598991616,496,-16172,1412,2,A
1781598991637,636,-16404,1416,2,A
1781598991657,436,-16172,1448,2,A
1781598991680,108,-16040,1620,2,A
1781598991701,172,-16132,1428,2,A
1781598991724,580,-16380,1136,2,A
1781598991744,376,-16504,1360,2,A
1781598991766,204,-16424,1580,2,A
1781598991787,120,-16092,1524,2,A
1781598991809,216,-15960,1452,2,A
1781598991830,404,-16348,1508,2,A
1781598991852,524,-16480,1460,2,A
1781598991874,520,-16288,1396,2,A
1781598991895,188,-16244,1688,2,A
1781598991917,272,-16136,1508,2,A
1781598991938,296,-16080,1544,2,A
1781598991960,368,-16300,1692,2,A
1781598991982,596,-16292,1656,2,A
1781598992004,420,-16192,1684,2,A
1781598992025,540,-16208,1572,2,A
1781598992046,340,-16380,1656,2,A
1781598992069,448,-16212,1636,2,A
1781598992089,528,-16124,1420,2,A
1781598992111,548,-16124,1412,2,A
1781598992132,336,-16304,1904,2,A
1781598992155,316,-16348,1840,2,A
1781598992176,596,-16120,1432,2,A
1781598992197,464,-16084,1488,2,A
1781598992219,292,-16392,1760,2,A
1781598992240,220,-16240,1860,2,A
1781598992262,380,-16328,1464,2,A
1781598992283,444,-16256,1548,2,A
1781598992305,212,-16232,1812,2,A
1781598992327,44,-16008,1960,2,A
1781598992348,392,-16148,1564,2,A
1781598992370,432,-16212,1564,2,A
1781598992392,388,-16280,1780,2,A
1781598992413,324,-16368,1580,2,A
1781598992434,444,-16128,1500,2,A
1781598992456,464,-16192,1624,2,A
1781598992477,336,-16092,1732,2,A
1781598992503,520,-16336,1640,2,A
1781598992521,628,-16428,1772,2,A
1781598992542,380,-16168,1712,2,A
1781598992563,432,-16184,1848,2,A
1781598992585,568,-16316,1660,2,A
1781598992607,548,-16252,1668,2,A
1781598992629,416,-16264,1888,2,A
1781598992650,476,-16296,1644,2,A
1781598992671,492,-16060,1624,2,A
1781598992693,136,-16288,2036,2,A
1781598992715,208,-16188,1904,2,A
1781598992737,704,-16152,1288,2,A
1781598992758,344,-16288,1732,2,A
1781598992780,188,-16384,1848,2,A
1781598992801,428,-16160,1560,2,A
1781598992823,420,-16044,1556,2,A
1781598992844,316,-16360,1644,2,A
1781598992865,140,-16400,1868,2,A
1781598992887,316,-16132,1684,2,A
1781598992908,348,-16232,1584,2,A
1781598992930,212,-16172,1704,2,A
1781598992952,128,-16116,1844,2,A
1781598992974,508,-16352,1688,2,A
1781598992995,304,-16316,1720,2,A
1781598993017,348,-16180,1584,2,A
1781598993038,208,-16248,1756,2,A
1781598993059,392,-16124,1544,2,A
