timestamp,ax,ay,az,label,subject_id
1781599008644,308,-16060,684,3,A
1781599008646,296,-16292,768,3,A
1781599008646,20,-16408,1380,3,A
1781599008648,608,-16128,792,3,A
1781599008649,576,-16144,892,3,A
1781599008651,388,-16312,1040,3,A
1781599008652,296,-16504,920,3,A
1781599008653,60,-16404,776,3,A
1781599008654,-112,-16264,804,3,A
1781599008655,-372,-16116,1024,3,A
1781599008657,-156,-16132,896,3,A
1781599008661,172,-16428,880,3,A
1781599008669,428,-16312,604,3,A
1781599008681,520,-16440,384,3,A
1781599008715,-24,-16464,808,3,A
1781599008733,212,-16344,400,3,A
1781599008738,480,-16364,244,3,A
1781599008745,288,-16500,512,3,A
1781599008748,628,-15708,688,3,A
1781599008750,500,-16520,488,3,A
1781599008752,788,-16840,48,3,A
1781599008753,1068,-16144,-156,3,A
1781599008754,1044,-16164,-160,3,A
1781599008754,1780,-15552,-676,3,A
1781599008754,2164,-16232,-428,3,A
1781599008754,1272,-15724,960,3,A
1781599008754,944,-15476,1852,3,A
1781599008755,588,-14652,1916,3,A
1781599008755,-40,-15636,1824,3,A
1781599008755,-1144,-17276,2012,3,A
1781599008755,-1468,-18272,1732,3,A
1781599008756,-748,-18804,1000,3,A
1781599008756,-1756,-17372,1728,3,A
1781599008756,-2280,-15824,2108,3,A
1781599008756,-2152,-14764,2388,3,A
1781599008757,-884,-15064,2188,3,A
1781599008757,844,-15324,1904,3,A
1781599008757,1480,-16496,2252,3,A
1781599008758,1152,-18176,2744,3,A
1781599008758,492,-16824,2108,3,A
1781599008759,156,-14800,224,3,A
1781599008759,284,-16172,-1844,3,A
1781599008759,908,-19816,-3836,3,A
1781599008759,6600,-20520,-7864,3,A
1781599008760,4632,-14420,-4812,3,A
1781599008760,-1244,-9672,728,3,A
1781599008760,-6904,-5948,4284,3,A
1781599008760,-7884,-9208,7156,3,A
1781599008760,-6672,-14192,6476,3,A
1781599008760,676,-20540,1332,3,A
1781599008762,5652,-22868,-2084,3,A
1781599008762,6036,-23992,-780,3,A
1781599008762,2532,-20344,2336,3,A
1781599008762,-516,-14556,3528,3,A
1781599008763,-1328,-12344,3640,3,A
1781599008763,-524,-14592,2484,3,A
1781599008763,1072,-16568,944,3,A
1781599008764,936,-16972,1020,3,A
1781599008764,-788,-16712,2132,3,A
1781599008764,-2128,-16524,3364,3,A
1781599008765,-2064,-17212,3540,3,A
1781599008765,-1292,-16952,3164,3,A
1781599008765,220,-16048,1972,3,A
1781599008766,720,-15356,1192,3,A
1781599008766,260,-16168,624,3,A
1781599008766,-268,-16960,-136,3,A
1781599008766,-1972,-19312,-416,3,A
1781599008766,3264,-20688,-5028,3,A
1781599008766,2148,-16904,-3908,3,A
1781599008767,-2324,-12008,124,3,A
1781599008767,-5004,-8492,3620,3,A
1781599008767,-4640,-8272,4036,3,A
1781599008767,-3128,-11720,3280,3,A
1781599008767,764,-17308,1180,3,A
1781599008767,2500,-18636,-260,3,A
1781599008767,1468,-18864,212,3,A
1781599008767,-112,-19076,1340,3,A
1781599008767,-1488,-18452,2512,3,A
1781599008768,-2196,-17988,3072,3,A
1781599008768,-2380,-18640,3764,3,A
1781599008768,-2040,-18540,3700,3,A
1781599008768,-1424,-16108,3108,3,A
1781599008768,-1320,-14152,2984,3,A
1781599008768,-408,-13644,2048,3,A
1781599008768,1168,-14532,1032,3,A
1781599008768,1452,-16036,1612,3,A
1781599008768,808,-16968,2456,3,A
1781599008769,192,-17048,2792,3,A
1781599008769,188,-16952,2484,3,A
1781599008769,-484,-16400,2332,3,A
1781599008769,-464,-17488,764,3,A
1781599008769,4604,-20592,-3816,3,A
1781599008769,6920,-19476,-4408,3,A
1781599008769,1436,-14856,120,3,A
1781599008769,-2832,-10560,2984,3,A
1781599008769,-2528,-10816,2412,3,A
1781599008771,1292,-12712,-888,3,A
1781599008771,3108,-15372,-2604,3,A
1781599008771,952,-17728,-784,3,A
1781599008789,-2220,-18532,964,3,A
1781599008811,-4156,-18168,1604,3,A
1781599008831,-3400,-16904,452,3,A
1781599008854,-3788,-16056,1272,3,A
1781599008876,-4716,-14980,3060,3,A
1781599008897,-2660,-14796,3088,3,A
1781599008918,400,-16268,2320,3,A
1781599008941,2668,-16808,2356,3,A
1781599008962,3220,-17812,2336,3,A
1781599008984,2780,-17896,1836,3,A
1781599009005,-24,-16864,2772,3,A
1781599009026,-1208,-16276,1996,3,A
1781599009048,-1876,-15988,1224,3,A
1781599009070,-2336,-15740,1168,3,A
1781599009092,-2556,-15752,1568,3,A
1781599009113,-2060,-15364,1312,3,A
1781599009135,-1704,-15412,1392,3,A
1781599009157,-2304,-16568,2216,3,A
1781599009178,-1260,-18764,644,3,A
1781599009200,4172,-21708,-4092,3,A
1781599009222,3400,-18044,-3412,3,A
1781599009243,-2328,-13400,944,3,A
1781599009264,-4672,-11668,3104,3,A
1781599009286,-4048,-12052,2604,3,A
1781599009307,-520,-14456,-196,3,A
1781599009330,2332,-15488,-1316,3,A
1781599009351,2932,-14796,-960,3,A
1781599009372,1704,-15324,1768,3,A
1781599009393,352,-16844,4108,3,A
1781599009415,972,-19024,3852,3,A
1781599009437,2736,-20876,1248,3,A
1781599009458,2288,-21736,-56,3,A
1781599009480,-68,-20432,296,3,A
1781599009503,-2444,-16976,1052,3,A
1781599009523,-3408,-13184,1280,3,A
1781599009545,-2872,-11552,1404,3,A
1781599009567,-1832,-11984,1688,3,A
1781599009588,-208,-14428,1836,3,A
1781599009610,100,-16840,3356,3,A
1781599009631,1992,-19048,1544,3,A
1781599009653,5224,-18244,-864,3,A
1781599009674,4384,-15832,204,3,A
1781599009696,-1828,-16868,5324,3,A
1781599009719,-1172,-19244,3936,3,A
1781599009740,6864,-21140,-4332,3,A
1781599009761,9236,-19012,-6204,3,A
1781599009784,1188,-13832,-952,3,A
1781599009806,-5080,-10540,3420,3,A
1781599009827,-4556,-9080,1952,3,A
1781599009847,-1416,-10256,-1796,3,A
1781599009870,1308,-16416,-3028,3,A
1781599009891,-3452,-18792,1368,3,A
1781599009912,-8432,-18100,6108,3,A
1781599009934,-3820,-18708,2848,3,A
1781599009956,280,-19156,-120,3,A
1781599009978,692,-17796,64,3,A
1781599009999,-2440,-16196,3244,3,A
1781599010021,-2808,-15212,3860,3,A
1781599010042,-416,-15032,1700,3,A
1781599010064,-968,-15260,1908,3,A
1781599010085,1204,-15952,184,3,A
1781599010107,464,-16796,1156,3,A
1781599010129,-1692,-17908,3256,3,A
1781599010150,-2500,-17840,3152,3,A
1781599010173,-1716,-16916,1456,3,A
1781599010194,-72,-15540,-756,3,A
1781599010215,-1196,-14980,536,3,A
1781599010237,-2820,-15176,2112,3,A
1781599010259,-1224,-16480,796,3,A
1781599010280,1704,-18424,-1400,3,A
1781599010302,1104,-18676,-1316,3,A
1781599010323,24,-17424,-580,3,A
1781599010345,-656,-15528,-16,3,A
1781599010367,-3236,-13224,2220,3,A
1781599010388,-4528,-11792,2736,3,A
1781599010410,-480,-14096,-232,3,A
1781599010431,1704,-15900,-716,3,A
1781599010453,1344,-15940,436,3,A
1781599010474,1004,-15620,1320,3,A
1781599010496,1468,-16012,1292,3,A
1781599010518,3740,-16504,-276,3,A
1781599010540,2708,-16748,680,3,A
1781599010561,-116,-17084,3144,3,A
1781599010582,-1964,-17864,3612,3,A
1781599010604,388,-19176,880,3,A
1781599010625,300,-18328,724,3,A
1781599010648,-2504,-16496,2644,3,A
1781599010669,-4168,-15624,3752,3,A
1781599010691,-1352,-16004,1828,3,A
1781599010713,616,-16036,1304,3,A
1781599010734,-1344,-14912,2988,3,A
1781599010755,-1356,-14820,2968,3,A
1781599010777,612,-15428,944,3,A
1781599010799,2904,-17064,-172,3,A
1781599010820,2112,-18120,1132,3,A
1781599010842,1336,-19600,1312,3,A
1781599010863,6048,-20644,-3660,3,A
1781599010893,5088,-16576,-4084,3,A
1781599010915,-200,-12632,-1104,3,A
1781599010929,-2844,-10540,204,3,A
1781599010950,-6232,-9768,2940,3,A
1781599010972,-9352,-11280,5324,3,A
1781599010994,-6884,-16008,3632,3,A
1781599011015,-3092,-19416,1036,3,A
1781599011037,1288,-21548,-976,3,A
1781599011059,1980,-20564,552,3,A
1781599011080,-1552,-16952,4272,3,A
1781599011100,-156,-15192,2872,3,A
1781599011123,1368,-14860,2112,3,A
1781599011145,1424,-15428,1364,3,A
1781599011166,864,-16308,756,3,A
1781599011188,-2040,-15988,2184,3,A
1781599011210,-2984,-16892,2192,3,A
1781599011231,-3888,-16616,2252,3,A
1781599011254,-2852,-16632,1668,3,A
1781599011275,-3188,-15336,1908,3,A
1781599011296,-1356,-15040,1200,3,A
1781599011317,-716,-15800,1336,3,A
1781599011340,-1652,-15772,2528,3,A
1781599011361,-2316,-17552,2252,3,A
1781599011383,-216,-19952,-988,3,A
1781599011405,4348,-21348,-5088,3,A
1781599011426,-56,-17328,-836,3,A
1781599011448,-5212,-12432,3892,3,A
1781599011469,-5688,-9364,4216,3,A
1781599011491,-1260,-10680,1352,3,A
1781599011512,2624,-14336,176,3,A
1781599011534,2472,-18628,2184,3,A
1781599011556,1916,-19048,2476,3,A
1781599011577,1188,-18504,2608,3,A
1781599011599,3564,-16484,-992,3,A
1781599011620,3220,-16344,-640,3,A
1781599011642,-2228,-17196,2400,3,A
1781599011664,-2008,-17204,1940,3,A
1781599011686,1184,-17680,-384,3,A
1781599011707,-984,-15744,1264,3,A
1781599011729,-2292,-12488,2128,3,A
1781599011751,-2640,-13280,3588,3,A
1781599011773,-2108,-16704,3568,3,A
1781599011794,2020,-20068,1168,3,A
1781599011815,3500,-19372,120,3,A
1781599011836,2348,-15740,172,3,A
1781599011859,2468,-13708,-112,3,A
1781599011880,1208,-14416,840,3,A
1781599011900,-368,-15748,1520,3,A
1781599011923,-172,-18308,540,3,A
1781599011945,4464,-22144,-3552,3,A
1781599011966,3836,-20176,-2592,3,A
1781599011988,-2176,-14356,1892,3,A
1781599012010,-4024,-10396,2468,3,A
1781599012031,-1320,-10112,-184,3,A
1781599012053,1292,-13660,-1856,3,A
1781599012074,156,-15684,-632,3,A
1781599012097,-2432,-17284,1824,3,A
1781599012118,-2708,-19556,1856,3,A
1781599012139,-604,-21152,248,3,A
1781599012161,-988,-18772,448,3,A
1781599012183,-1428,-16856,1184,3,A
1781599012204,-2148,-15412,1348,3,A
1781599012226,1544,-14388,-1776,3,A
1781599012248,1488,-14564,-704,3,A
1781599012269,-1568,-13040,1844,3,A
1781599012291,-4008,-15068,3420,3,A
1781599012312,-2492,-18364,2064,3,A
1781599012333,-192,-19452,112,3,A
1781599012355,-908,-18128,604,3,A
1781599012376,-1128,-17108,1004,3,A
1781599012398,1156,-15436,-672,3,A
1781599012421,1584,-14848,-308,3,A
1781599012442,-688,-14504,1444,3,A
1781599012464,-3256,-14572,2668,3,A
1781599012484,-4176,-16868,2464,3,A
1781599012506,-920,-18084,-600,3,A
1781599012528,-336,-20028,-1200,3,A
1781599012549,1152,-21364,-2476,3,A
1781599012571,3620,-19760,-3304,3,A
1781599012593,992,-15212,-624,3,A
1781599012614,-2384,-11100,1760,3,A
1781599012636,-1348,-11104,1484,3,A
1781599012657,2440,-11972,-396,3,A
1781599012679,2528,-13224,840,3,A
1781599012701,1884,-15988,1516,3,A
1781599012722,1432,-18676,1492,3,A
1781599012744,2088,-20420,492,3,A
1781599012765,1396,-19816,640,3,A
1781599012786,516,-16556,756,3,A
1781599012808,220,-15324,544,3,A
1781599012830,332,-15288,424,3,A
1781599012851,800,-16964,84,3,A
1781599012873,228,-16148,808,3,A
1781599012896,-1540,-16600,2544,3,A
1781599012916,-3676,-16068,4024,3,A
1781599012939,-3152,-16052,3832,3,A
1781599012961,-2100,-16308,2616,3,A
1781599012981,-252,-15668,1180,3,A
1781599013003,148,-15840,1360,3,A
1781599013025,-128,-15152,2512,3,A
1781599013046,-636,-15412,2648,3,A
1781599013068,1064,-18112,904,3,A
1781599013089,5244,-21116,-3880,3,A
1781599013111,4660,-19544,-3696,3,A
1781599013132,-688,-15356,132,3,A
1781599013154,-3780,-12488,1936,3,A
1781599013176,-2984,-11836,496,3,A
1781599013197,-396,-11700,-2228,3,A
1781599013219,-1220,-13292,-1356,3,A
1781599013241,-2972,-17184,2600,3,A
1781599013263,-4284,-20016,5668,3,A
1781599013284,-8,-19472,2172,3,A
1781599013305,1456,-18204,320,3,A
1781599013327,148,-16896,1388,3,A
1781599013349,-2072,-16336,3324,3,A
1781599013370,-2248,-15260,2888,3,A
1781599013392,-1096,-15412,2148,3,A
1781599013414,148,-15600,1048,3,A
1781599013436,1204,-17376,444,3,A
1781599013457,1540,-17860,376,3,A
1781599013479,-592,-16476,2056,3,A
1781599013500,-2376,-15588,3560,3,A
1781599013522,-1764,-15644,2656,3,A
1781599013543,-1712,-16332,2392,3,A
1781599013565,-2468,-15364,1532,3,A
1781599013587,-1496,-16644,1340,3,A
1781599013608,-560,-17344,452,3,A
1781599013630,-536,-18812,612,3,A
1781599013653,1496,-20352,-1636,3,A
1781599013675,2700,-17568,-2784,3,A
1781599013696,-72,-13388,-420,3,A
1781599013718,-3540,-10168,3272,3,A
1781599013739,-5112,-9760,5344,3,A
1781599013762,-1520,-11980,2164,3,A
1781599013782,1544,-16144,1368,3,A
1781599013804,2084,-18280,2012,3,A
1781599013826,1832,-19680,2764,3,A
1781599013847,2464,-18104,1788,3,A
1781599013868,2916,-16756,916,3,A
1781599013891,1412,-16068,1852,3,A
1781599013912,52,-15808,2504,3,A
1781599013934,-1276,-15912,2576,3,A
1781599013956,-1220,-16496,2104,3,A
1781599013977,-400,-17048,1432,3,A
1781599013999,-808,-16960,1604,3,A
1781599014021,-516,-16196,1704,3,A
1781599014042,-688,-15260,2332,3,A
1781599014064,-248,-15516,2424,3,A
1781599014085,852,-16444,2488,3,A
1781599014107,564,-16612,2740,3,A
1781599014128,40,-16712,2364,3,A
1781599014150,-176,-16696,1936,3,A
1781599014172,-380,-17112,1000,3,A
1781599014208,1756,-18736,-1492,3,A
1781599014215,3212,-18476,-1988,3,A
1781599014236,1264,-14892,-428,3,A
1781599014258,-784,-13124,912,3,A
1781599014280,-1436,-12032,1112,3,A
1781599014301,-1688,-12352,1360,3,A
1781599014323,-1768,-13188,1100,3,A
1781599014345,-1220,-15864,-16,3,A
1781599014367,-360,-17488,-392,3,A
1781599014388,-1268,-18500,1412,3,A
1781599014409,-1648,-17640,2712,3,A
1781599014431,-1524,-16984,3260,3,A
1781599014453,152,-17032,2900,3,A
1781599014474,1036,-17260,3364,3,A
1781599014495,1964,-17524,2968,3,A
1781599014518,3296,-17884,2404,3,A
1781599014539,3992,-17336,1056,3,A
1781599014561,2244,-16704,1464,3,A
1781599014582,40,-16464,2136,3,A
1781599014604,-728,-15840,1760,3,A
1781599014626,-940,-16204,1200,3,A
1781599014647,-804,-16772,1044,3,A
1781599014669,-1708,-16252,2308,3,A
1781599014690,-2340,-16436,3092,3,A
1781599014712,-1292,-16568,2232,3,A
1781599014733,-224,-17124,740,3,A
1781599014755,3220,-20640,-2276,3,A
1781599014777,5816,-19088,-4988,3,A
1781599014798,-1272,-14344,-280,3,A
1781599014820,-5188,-11352,3056,3,A
1781599014841,-5384,-10152,4160,3,A
1781599014863,-3820,-10936,3720,3,A
1781599014885,-880,-14268,2196,3,A
1781599014906,708,-16272,2232,3,A
1781599014928,1620,-17600,1824,3,A
1781599014950,2200,-18520,2104,3,A
1781599014972,1412,-18812,2868,3,A
1781599014992,992,-18192,2316,3,A
1781599015014,-104,-17668,2344,3,A
1781599015036,-1148,-16644,2052,3,A
1781599015058,-2580,-15312,2584,3,A
1781599015080,-3548,-14348,3024,3,A
1781599015101,-2940,-13816,2904,3,A
1781599015122,-568,-14688,1664,3,A
1781599015145,376,-16224,1944,3,A
1781599015166,432,-17192,2420,3,A
1781599015187,332,-18196,2584,3,A
1781599015209,548,-18468,2436,3,A
1781599015230,-444,-16972,2704,3,A
1781599015252,-1356,-15876,2888,3,A
1781599015274,-1472,-15772,2736,3,A
1781599015295,-396,-16224,2008,3,A
1781599015317,-296,-16792,2148,3,A
1781599015338,776,-17860,984,3,A
1781599015360,4924,-18636,-2140,3,A
1781599015381,5048,-15456,-2176,3,A
1781599015403,1892,-13108,792,3,A
1781599015425,-1284,-12812,3688,3,A
1781599015446,-1084,-13912,3384,3,A
1781599015468,1588,-14584,36,3,A
1781599015489,1660,-15344,-1104,3,A
1781599015511,56,-15804,-628,3,A
1781599015533,-2964,-16300,1788,3,A
1781599015554,-4176,-15980,2000,3,A
1781599015576,-5388,-16972,3452,3,A
1781599015597,-3784,-18760,2972,3,A
1781599015619,-1680,-19984,2632,3,A
1781599015641,-260,-18552,2628,3,A
1781599015662,260,-17968,3116,3,A
1781599015684,1040,-16124,2948,3,A
1781599015705,544,-14988,2852,3,A
1781599015728,-596,-14832,3152,3,A
1781599015749,-428,-15724,1928,3,A
1781599015770,-492,-17016,1248,3,A
1781599015792,-1336,-16824,1476,3,A
1781599015814,-2744,-16148,2080,3,A
1781599015836,-2808,-16336,2164,3,A
1781599015857,-1720,-17144,1352,3,A
1781599015879,-460,-17840,-72,3,A
1781599015900,1072,-19224,-992,3,A
1781599015922,3972,-17788,-3212,3,A
1781599015943,1396,-14148,-964,3,A
1781599015965,-1604,-10664,1204,3,A
1781599015986,-2680,-10248,2676,3,A
1781599016009,-1868,-10608,1932,3,A
1781599016030,-1032,-13852,1292,3,A
1781599016051,-132,-17180,1256,3,A
1781599016072,580,-20180,708,3,A
1781599016095,2460,-22656,-352,3,A
1781599016116,2592,-19884,4,3,A
1781599016138,-460,-16072,2400,3,A
1781599016159,-600,-14348,2328,3,A
1781599016181,-1076,-14532,2812,3,A
1781599016203,-1076,-16104,2732,3,A
1781599016224,-1260,-17696,2328,3,A
1781599016246,-816,-17876,1512,3,A
1781599016269,-1076,-17496,1788,3,A
1781599016289,-932,-16256,1716,3,A
1781599016311,-560,-16012,1840,3,A
1781599016332,-4,-16600,1932,3,A
1781599016354,124,-17040,1924,3,A
1781599016383,512,-16424,1404,3,A
1781599016400,892,-16428,700,3,A
1781599016419,936,-17084,212,3,A
1781599016440,1144,-17252,-52,3,A
1781599016462,564,-17388,-456,3,A
1781599016484,1804,-19688,-1152,3,A
1781599016505,2812,-16600,-1700,3,A
1781599016528,424,-12900,668,3,A
1781599016549,-980,-11040,2372,3,A
1781599016570,-756,-12552,2352,3,A
1781599016592,404,-13772,860,3,A
1781599016613,1684,-15436,-936,3,A
1781599016634,52,-16504,-480,3,A
1781599016657,-2680,-17456,864,3,A
1781599016679,-4008,-17952,1336,3,A
1781599016700,-3568,-16628,1036,3,A
1781599016720,-5072,-15628,3304,3,A
1781599016743,-5408,-15364,5032,3,A
1781599016765,-2428,-17064,4124,3,A
1781599016787,1176,-18332,2232,3,A
1781599016808,2120,-19024,2244,3,A
1781599016829,1388,-18348,2768,3,A
1781599016851,-632,-16260,3176,3,A
1781599016872,-1224,-15356,2592,3,A
1781599016895,-1604,-14848,2368,3,A
1781599016916,-2184,-15336,2072,3,A
1781599016938,-1960,-17200,1276,3,A
1781599016959,-864,-17500,-124,3,A
1781599016981,-540,-19384,-992,3,A
1781599017003,3036,-20712,-3680,3,A
1781599017025,712,-16584,-1556,3,A
1781599017046,-3608,-11764,1712,3,A
1781599017067,-4548,-9952,3356,3,A
1781599017090,-3348,-9976,3036,3,A
1781599017111,-312,-14436,1104,3,A
1781599017132,1640,-16728,32,3,A
1781599017154,3608,-19380,-684,3,A
1781599017175,3996,-20136,-432,3,A
1781599017197,4228,-17640,-840,3,A
1781599017219,2792,-14448,-268,3,A
1781599017240,1676,-13732,764,3,A
1781599017262,468,-15336,1904,3,A
1781599017284,580,-16988,1724,3,A
1781599017305,480,-18248,1672,3,A
1781599017327,-756,-18652,2188,3,A
1781599017349,-1516,-18360,2100,3,A
1781599017371,-2776,-17260,2212,3,A
1781599017392,-3716,-15948,2808,3,A
1781599017413,-4044,-14984,3404,3,A
1781599017435,-2600,-16348,2868,3,A
1781599017457,-1140,-16708,2464,3,A
1781599017478,-436,-16776,1876,3,A
1781599017502,544,-17160,664,3,A
1781599017521,1088,-17632,-76,3,A
1781599017543,1784,-18824,-1224,3,A
1781599017564,3516,-19108,-2620,3,A
1781599017586,1556,-14656,-1140,3,A
1781599017608,-1072,-11752,1168,3,A
1781599017629,-2512,-10792,2228,3,A
1781599017651,-2488,-10308,1104,3,A
1781599017672,-1520,-13432,284,3,A
1781599017695,-3104,-16268,1840,3,A
1781599017716,-3860,-18984,2128,3,A
1781599017738,-364,-21268,-576,3,A
1781599017759,136,-20236,-100,3,A
1781599017781,-2500,-17816,2348,3,A
1781599017802,-3128,-15960,3560,3,A
1781599017825,-624,-14832,2476,3,A
1781599017846,-40,-15176,3580,3,A
1781599017867,1412,-16072,2744,3,A
1781599017889,2424,-17364,1720,3,A
1781599017911,460,-17224,2340,3,A
1781599017932,-1408,-15520,2372,3,A
1781599017954,-2852,-16356,2344,3,A
1781599017976,-3176,-16204,2244,3,A
1781599017997,-3304,-15148,2260,3,A
1781599018019,-2624,-14648,2200,3,A
1781599018041,-2664,-15476,3008,3,A
1781599018062,-1584,-15408,1852,3,A
1781599018084,-1560,-16204,2000,3,A
1781599018105,-572,-19376,-420,3,A
1781599018127,6196,-22488,-5540,3,A
1781599018149,1712,-19692,-1340,3,A
1781599018170,-6288,-14012,4156,3,A
1781599018192,-8128,-11172,5908,3,A
1781599018213,-4892,-10516,3160,3,A
1781599018235,-2816,-12376,1652,3,A
1781599018256,-928,-15088,1080,3,A
1781599018279,-368,-16792,1564,3,A
1781599018300,1404,-17480,1244,3,A
1781599018322,2176,-17252,1216,3,A
1781599018343,936,-17508,1748,3,A
1781599018364,24,-16376,1392,3,A
1781599018386,-164,-15256,712,3,A
1781599018407,340,-15404,164,3,A
1781599018430,-496,-16396,1304,3,A
1781599018451,-880,-16336,2028,3,A
1781599018472,-956,-16528,2480,3,A
1781599018494,-336,-17160,2536,3,A
1781599018515,312,-17124,2464,3,A
1781599018537,980,-17256,1716,3,A
1781599018558,688,-17420,1832,3,A
1781599018581,-300,-16592,2444,3,A
1781599018602,-868,-16264,2536,3,A
1781599018623,-624,-16656,2096,3,A
1781599018645,-144,-16876,1976,3,A
1781599018668,-296,-16436,2460,3,A
1781599018689,-1112,-16720,3412,3,A
1781599018710,-1168,-16736,3164,3,A
1781599018732,-348,-16064,2124,3,A
1781599018753,380,-16160,1352,3,A
1781599018775,1292,-16368,-584,3,A
1781599018797,5264,-19632,-4532,3,A
1781599018818,7140,-19188,-5660,3,A
1781599018840,1788,-13556,-2056,3,A
1781599018861,-4752,-9824,3040,3,A
1781599018883,-8624,-8368,6972,3,A
1781599018905,-8620,-11308,6524,3,A
1781599018926,-1736,-16380,1088,3,A
1781599018948,-484,-19588,764,3,A
1781599018970,-2112,-21452,2468,3,A
1781599018991,-3252,-19760,3940,3,A
1781599019013,-2540,-16440,3792,3,A
1781599019035,-1640,-14908,3700,3,A
1781599019056,-240,-15180,2932,3,A
1781599019078,2248,-16272,1556,3,A
1781599019099,1092,-16016,1956,3,A
1781599019121,-2264,-15504,3548,3,A
1781599019143,-4492,-15952,4316,3,A
1781599019164,-4044,-15380,3008,3,A
1781599019186,-3000,-15812,1924,3,A
1781599019208,-4064,-16216,3476,3,A
1781599019229,-3236,-15756,3520,3,A
1781599019251,-2380,-15396,3208,3,A
1781599019272,-884,-15904,2180,3,A
1781599019294,-1724,-17536,2356,3,A
1781599019316,992,-20972,-1136,3,A
1781599019339,5968,-21492,-5128,3,A
1781599019360,808,-15816,-1048,3,A
1781599019382,-5128,-10684,2772,3,A
1781599019405,-7460,-7860,5124,3,A
1781599019426,-5016,-8904,3728,3,A
1781599019447,-1352,-13528,1508,3,A
1781599019469,664,-17228,880,3,A
1781599019490,1900,-20608,208,3,A
1781599019512,3552,-22180,268,3,A
1781599019533,824,-19156,2924,3,A
1781599019555,-1032,-15872,3520,3,A
1781599019577,-1632,-15164,2808,3,A
1781599019598,-1652,-15536,2012,3,A
1781599019620,-1256,-15776,796,3,A
1781599019641,-1632,-15604,1000,3,A
1781599019663,-2528,-16052,1492,3,A
1781599019684,-2276,-16496,1564,3,A
1781599019706,-2068,-17496,2396,3,A
1781599019728,-836,-18648,2864,3,A
1781599019750,404,-18352,2904,3,A
1781599019771,1136,-16560,2600,3,A
1781599019792,424,-15720,2936,3,A
1781599019815,852,-16128,1684,3,A
1781599019836,1432,-17216,176,3,A
1781599019858,1168,-16520,-132,3,A
1781599019879,16,-18124,-124,3,A
1781599019901,2760,-20560,-2720,3,A
1781599019922,1452,-15076,-2216,3,A
1781599019944,-1924,-11520,812,3,A
1781599019965,-3984,-9096,2852,3,A
1781599019987,-3688,-10308,3236,3,A
1781599020009,-2056,-15312,2264,3,A
1781599020032,-1420,-18376,1284,3,A
1781599020052,-2092,-21620,972,3,A
1781599020074,-4100,-20120,2316,3,A
1781599020095,-6396,-15892,3984,3,A
1781599020118,-4792,-13444,3156,3,A
1781599020139,-2468,-13448,1948,3,A
1781599020161,-316,-15668,2516,3,A
1781599020182,652,-18324,3100,3,A
1781599020204,2676,-19876,2276,3,A
1781599020225,1140,-19824,3676,3,A
1781599020247,-2756,-16464,4872,3,A
1781599020268,-3552,-15716,3832,3,A
1781599020290,-2492,-14448,1852,3,A
1781599020312,-2112,-14560,1084,3,A
1781599020333,-2384,-15164,840,3,A
1781599020355,-1952,-16900,256,3,A
1781599020377,-144,-18616,-668,3,A
1781599020399,1712,-16136,-1168,3,A
1781599020420,-124,-12864,1288,3,A
1781599020441,-3620,-10248,3376,3,A
1781599020463,-4164,-10444,2876,3,A
1781599020485,-3296,-13352,1692,3,A
1781599020506,-2392,-17032,980,3,A
1781599020528,-2724,-22160,1572,3,A
1781599020550,692,-23264,-476,3,A
1781599020571,1960,-20896,500,3,A
1781599020593,276,-15476,3012,3,A
1781599020614,-1812,-12332,5080,3,A
1781599020636,-1532,-11144,3400,3,A
1781599020658,2892,-14652,-1044,3,A
1781599020679,3104,-17648,-1320,3,A
1781599020701,-1228,-18036,1620,3,A
1781599020722,-3844,-18124,3124,3,A
1781599020745,-2856,-16640,2368,3,A
1781599020766,-1880,-16708,2620,3,A
1781599020800,-2068,-17392,3388,3,A
1781599020809,-1520,-17284,3516,3,A
1781599020831,-448,-16260,1936,3,A
1781599020852,-492,-14948,1048,3,A
1781599020874,-1200,-14884,1200,3,A
1781599020896,-1032,-15800,1432,3,A
1781599020917,-1000,-16868,1884,3,A
1781599020939,944,-17120,740,3,A
1781599020960,432,-17524,820,3,A
1781599020982,2840,-20060,-1596,3,A
1781599021003,4220,-18868,-3352,3,A
1781599021026,588,-13436,-988,3,A
1781599021047,-1728,-9812,996,3,A
1781599021069,-4132,-9960,3160,3,A
1781599021090,-3952,-12272,2984,3,A
1781599021112,-3612,-15004,2484,3,A
1781599021134,-3760,-18604,1952,3,A
1781599021155,-3372,-22940,1764,3,A
1781599021177,-2872,-21540,2184,3,A
1781599021198,-3172,-17236,3436,3,A
1781599021220,-2500,-15096,3840,3,A
1781599021241,-932,-14428,4396,3,A
1781599021263,836,-14640,2436,3,A
1781599021284,1564,-15636,1728,3,A
1781599021306,1092,-17100,1096,3,A
1781599021328,720,-17624,496,3,A
1781599021349,-1792,-17568,1232,3,A
1781599021371,-4172,-18084,2900,3,A
1781599021393,-4456,-17340,1784,3,A
1781599021414,-3148,-15568,1116,3,A
1781599021436,-2876,-14744,1204,3,A
1781599021458,-1580,-15244,152,3,A
1781599021479,156,-15104,-384,3,A
1781599021500,500,-15016,212,3,A
1781599021522,240,-15940,1012,3,A
1781599021543,144,-15680,1520,3,A
1781599021565,-712,-14668,1940,3,A
1781599021587,-1400,-14408,1040,3,A
1781599021608,-96,-15332,-264,3,A
1781599021630,-208,-14840,-616,3,A
1781599021651,-2168,-14712,1172,3,A
1781599021673,-2964,-17204,2720,3,A
1781599021694,428,-19952,912,3,A
1781599021717,556,-19876,1376,3,A
1781599021738,-628,-17212,2428,3,A
1781599021760,-1740,-15120,2920,3,A
1781599021781,-2168,-13972,2592,3,A
1781599021803,-1776,-13072,808,3,A
1781599021824,-1972,-14972,660,3,A
1781599021846,-3212,-17180,1968,3,A
1781599021871,-3492,-19300,3468,3,A
1781599021889,-1916,-19836,2960,3,A
1781599021910,100,-17852,1856,3,A
1781599021932,116,-15924,2368,3,A
1781599021954,-168,-14404,2460,3,A
1781599021975,-24,-11768,128,3,A
1781599021997,1748,-15028,124,3,A
1781599022018,1668,-16748,396,3,A
1781599022040,1736,-17908,100,3,A
1781599022062,1044,-18856,-256,3,A
1781599022083,3128,-21616,-2888,3,A
1781599022105,5388,-19072,-4780,3,A
1781599022126,828,-13964,-664,3,A
1781599022148,-2768,-10972,2376,3,A
1781599022170,-2776,-10248,3020,3,A
1781599022191,-100,-12032,1200,3,A
1781599022213,148,-15532,564,3,A
1781599022235,428,-17324,-580,3,A
1781599022256,-980,-18612,-244,3,A
1781599022278,-2356,-18480,-556,3,A
1781599022300,-4420,-17552,1108,3,A
1781599022322,-5336,-15196,2752,3,A
1781599022343,-4224,-14884,3520,3,A
1781599022365,-1756,-16096,3332,3,A
1781599022386,-76,-16932,3636,3,A
1781599022407,1296,-16780,2772,3,A
1781599022429,2312,-17504,1080,3,A
1781599022450,1972,-17576,352,3,A
1781599022472,276,-17832,880,3,A
1781599022494,-1476,-17704,1360,3,A
1781599022516,-1248,-17460,264,3,A
1781599022537,-1452,-15736,-272,3,A
1781599022559,-2652,-14280,72,3,A
1781599022581,-3160,-14260,628,3,A
1781599022601,-3068,-14736,1040,3,A
1781599022624,-3748,-14720,2592,3,A
1781599022645,-2828,-15508,2524,3,A
1781599022666,-396,-16012,1296,3,A
1781599022688,1664,-15372,12,3,A
1781599022709,1160,-14472,-336,3,A
1781599022731,-1008,-16272,212,3,A
1781599022754,-1520,-17740,-1220,3,A
1781599022774,-1508,-20216,-296,3,A
1781599022796,-1736,-19700,1284,3,A
1781599022818,-1176,-16012,2128,3,A
1781599022839,-292,-13936,3312,3,A
1781599022861,1136,-14076,4208,3,A
1781599022883,3180,-14804,2888,3,A
1781599022904,4736,-14908,44,3,A
1781599022926,4236,-15712,-1660,3,A
1781599022948,2328,-17068,-1996,3,A
1781599022973,-1688,-17468,-136,3,A
1781599023003,-6316,-18988,3464,3,A
1781599023020,-6096,-16852,3064,3,A
1781599023035,-5236,-16400,3292,3,A
1781599023055,-2704,-16376,1852,3,A
1781599023078,-1432,-16968,1840,3,A
1781599023099,-1340,-16788,2512,3,A
1781599023121,-1324,-16668,3264,3,A
1781599023142,-976,-16288,2968,3,A
1781599023164,420,-16496,1764,3,A
1781599023186,1304,-16776,836,3,A
1781599023207,2156,-16136,236,3,A
1781599023228,1984,-16076,-348,3,A
1781599023251,3200,-19704,-2096,3,A
1781599023272,2108,-19076,-2128,3,A
1781599023293,-2464,-14492,532,3,A
1781599023315,-6216,-10572,2788,3,A
1781599023337,-4476,-9988,1912,3,A
1781599023359,-1380,-11496,228,3,A
1781599023380,36,-15436,236,3,A
1781599023401,-232,-18792,1096,3,A
1781599023423,288,-21860,1060,3,A
1781599023445,204,-21564,1516,3,A
1781599023466,-2364,-17900,3456,3,A
1781599023488,-2752,-15368,4092,3,A
1781599023510,-2304,-14580,4452,3,A
1781599023531,-352,-15128,3524,3,A
1781599023553,1284,-16824,2128,3,A
1781599023574,2316,-16908,1308,3,A
1781599023596,960,-16520,864,3,A
1781599023617,-1168,-16532,1136,3,A
1781599023640,-2484,-17296,796,3,A
1781599023661,-2188,-17256,-16,3,A
1781599023683,-1528,-16080,-944,3,A
1781599023704,-2288,-14064,-204,3,A
1781599023726,-2724,-13316,612,3,A
1781599023747,-3028,-12448,1200,3,A
1781599023769,-2992,-14376,1740,3,A
1781599023791,-1528,-16220,1492,3,A
1781599023812,176,-18012,1048,3,A
1781599023833,1144,-17588,604,3,A
1781599023855,-208,-15688,1888,3,A
1781599023877,-1236,-14896,2508,3,A
1781599023899,-328,-16088,820,3,A
1781599023921,472,-18012,-228,3,A
1781599023943,1116,-18304,-868,3,A
1781599023963,204,-17768,-320,3,A
1781599023985,-1076,-15624,864,3,A
1781599024007,-1952,-14608,1996,3,A
1781599024028,-1912,-14264,2676,3,A
1781599024050,-1920,-14768,2784,3,A
1781599024072,-1732,-15828,2588,3,A
1781599024102,-1384,-17748,1840,3,A
1781599024132,-2004,-19396,1432,3,A
1781599024137,-4136,-22192,2820,3,A
1781599024158,-3292,-21928,1888,3,A
1781599024180,-2740,-16892,1260,3,A
1781599024202,-2244,-13672,1024,3,A
1781599024223,-1568,-12688,916,3,A
1781599024245,1188,-14328,-868,3,A
1781599024267,3460,-17268,-1572,3,A
1781599024288,3768,-19388,-1080,3,A
1781599024310,2140,-20548,-352,3,A
1781599024331,-824,-16608,420,3,A
1781599024353,-2600,-11692,656,3,A
1781599024375,-3428,-9428,1120,3,A
1781599024396,-3496,-10212,1904,3,A
1781599024418,-2988,-12660,1868,3,A
1781599024440,-1628,-16840,1524,3,A
1781599024460,-188,-19716,212,3,A
1781599024483,-692,-21832,308,3,A
1781599024504,-2656,-19076,1044,3,A
1781599024526,-5200,-15864,3200,3,A
1781599024547,-4812,-13496,3416,3,A
1781599024569,-3196,-14380,3316,3,A
1781599024591,-1060,-16516,2808,3,A
1781599024612,-544,-17908,3096,3,A
1781599024634,-284,-17972,2604,3,A
1781599024655,-692,-17692,2012,3,A
1781599024677,-1132,-17400,1348,3,A
1781599024699,-1368,-16896,656,3,A
1781599024721,-688,-16948,-128,3,A
1781599024742,-712,-16024,72,3,A
1781599024764,-1008,-17144,1056,3,A
1781599024786,2324,-16932,-784,3,A
1781599024807,2860,-15140,-692,3,A
1781599024829,1148,-12832,1508,3,A
1781599024850,-772,-10568,3748,3,A
1781599024872,-1984,-11516,5064,3,A
1781599024894,-752,-14748,4412,3,A
1781599024915,156,-17500,3252,3,A
1781599024936,468,-18980,1892,3,A
1781599024958,-276,-18608,692,3,A
1781599024980,-2076,-17680,660,3,A
1781599025002,-3932,-16796,1524,3,A
1781599025024,-4240,-16672,1680,3,A
1781599025046,-5016,-17616,3760,3,A
1781599025068,-2912,-17164,3564,3,A
1781599025090,-1220,-15860,3276,3,A
1781599025110,-940,-15536,3928,3,A
1781599025133,-244,-15788,3492,3,A
1781599025155,1256,-16532,1808,3,A
1781599025176,916,-16712,1384,3,A
1781599025203,-664,-16664,1976,3,A
1781599025220,-1664,-16268,2148,3,A
1781599025241,-948,-16468,1088,3,A
1781599025263,-528,-17140,756,3,A
1781599025284,-100,-16944,516,3,A
1781599025305,400,-17508,468,3,A
1781599025327,2292,-17300,-732,3,A
1781599025349,2096,-13836,-1336,3,A
1781599025370,-332,-11668,444,3,A
1781599025392,-2512,-11644,1964,3,A
1781599025414,-4480,-12816,3212,3,A
1781599025435,-2916,-15528,1748,3,A
1781599025457,-1892,-18188,992,3,A
1781599025479,-2060,-19308,1248,3,A
1781599025500,-4160,-19068,3572,3,A
1781599025522,-3636,-17044,3684,3,A
1781599025544,-1664,-16392,3108,3,A
1781599025565,-36,-16440,2612,3,A
1781599025586,608,-16868,2704,3,A
1781599025608,368,-16748,2440,3,A
1781599025630,-1020,-16852,2496,3,A
1781599025652,-3256,-16348,3088,3,A
1781599025674,-3884,-15616,2836,3,A
1781599025695,-3204,-15932,1808,3,A
1781599025716,-2532,-16440,1268,3,A
1781599025738,-1660,-16440,624,3,A
1781599025760,-1328,-15992,552,3,A
1781599025781,-1252,-15792,892,3,A
1781599025803,-1036,-15024,924,3,A
1781599025824,-2016,-14972,1692,3,A
1781599025846,-2108,-15252,1664,3,A
1781599025868,-2088,-14860,1544,3,A
1781599025889,-3312,-14464,2008,3,A
1781599025911,-3604,-14620,1980,3,A
1781599025933,-3936,-15436,2736,3,A
1781599025954,-2188,-17108,1476,3,A
1781599025976,1284,-18088,-532,3,A
1781599025998,1820,-18360,-168,3,A
1781599026019,508,-17000,1568,3,A
1781599026041,-508,-16852,2864,3,A
1781599026062,-32,-16020,3324,3,A
1781599026084,520,-15104,2088,3,A
1781599026105,764,-14984,1436,3,A
1781599026127,368,-14972,1208,3,A
1781599026149,-1160,-15576,1704,3,A
1781599026171,-2160,-16652,1968,3,A
1781599026192,-3352,-17876,3312,3,A
1781599026214,-1844,-18932,2340,3,A
1781599026235,-1240,-18800,2524,3,A
1781599026257,-2084,-16860,3264,3,A
1781599026278,-1728,-15264,2500,3,A
1781599026300,-1164,-15212,1772,3,A
1781599026322,628,-14680,84,3,A
1781599026344,256,-16300,868,3,A
1781599026364,76,-20116,1560,3,A
1781599026387,3624,-22292,-1596,3,A
1781599026408,1412,-16096,-632,3,A
1781599026430,-2560,-10960,2284,3,A
1781599026451,-4232,-9316,3832,3,A
1781599026474,-3924,-12164,4236,3,A
1781599026494,-708,-16348,2424,3,A
1781599026516,324,-18128,1744,3,A
1781599026538,1020,-20028,240,3,A
1781599026559,1196,-19824,-920,3,A
1781599026581,-2072,-15724,-20,3,A
1781599026603,-5028,-13288,1188,3,A
1781599026625,-7792,-13964,3780,3,A
1781599026646,-6760,-14732,3412,3,A
1781599026668,-3968,-15920,2828,3,A
1781599026689,-2512,-16592,3692,3,A
1781599026711,-2080,-16424,5292,3,A
1781599026733,20,-17296,4312,3,A
1781599026754,2380,-19124,2712,3,A
1781599026776,3436,-18688,108,3,A
1781599026798,92,-17096,260,3,A
1781599026819,-2496,-15652,392,3,A
1781599026840,-4456,-14060,488,3,A
1781599026862,-6408,-13136,1716,3,A
1781599026884,-6460,-13408,2256,3,A
1781599026905,-3640,-16164,1060,3,A
1781599026927,-692,-17160,300,3,A
1781599026949,-308,-15980,1552,3,A
1781599026971,-1540,-14828,3304,3,A
1781599026992,-2240,-14728,3928,3,A
1781599027014,-1412,-15640,2340,3,A
1781599027035,-556,-16544,88,3,A
1781599027057,724,-17576,-2212,3,A
1781599027079,-648,-19412,-1944,3,A
1781599027100,-1144,-18380,-32,3,A
1781599027122,-3580,-16472,3928,3,A
1781599027144,-1732,-13628,3176,3,A
1781599027165,-848,-13344,2572,3,A
1781599027186,3056,-16392,804,3,A
1781599027208,6408,-17704,-1256,3,A
1781599027230,4816,-15924,-1212,3,A
1781599027251,-1660,-15200,2552,3,A
1781599027273,-3628,-16956,3504,3,A
1781599027295,-2388,-17284,1248,3,A
1781599027316,-1784,-16372,780,3,A
1781599027338,-3564,-14888,2572,3,A
1781599027359,-1548,-15784,1672,3,A
1781599027381,1764,-17264,-404,3,A
1781599027408,228,-16412,1456,3,A
1781599027424,-2100,-16064,3024,3,A
1781599027446,-2996,-16344,2084,3,A
1781599027467,-548,-17292,-256,3,A
1781599027489,1504,-17796,-1464,3,A
1781599027510,368,-17212,-356,3,A
1781599027532,1252,-19000,-1956,3,A
1781599027553,4580,-17796,-4420,3,A
1781599027575,-240,-14040,-656,3,A
1781599027597,-6328,-11596,3784,3,A
1781599027618,-7324,-12452,4516,3,A
1781599027640,-2516,-15072,772,3,A
1781599027661,-600,-17080,72,3,A
1781599027683,-1068,-19192,676,3,A
1781599027705,1564,-20948,-756,3,A
1781599027727,3280,-17412,-2276,3,A
1781599027748,-628,-12832,164,3,A
1781599027769,-5388,-12296,3672,3,A
1781599027791,-3672,-14660,1956,3,A
1781599027813,-1236,-18092,664,3,A
1781599027834,888,-20180,-60,3,A
1781599027856,664,-20412,524,3,A
1781599027878,1668,-17288,-1308,3,A
1781599027899,1980,-15756,-2240,3,A
1781599027922,-1592,-13636,-412,3,A
1781599027943,-5024,-14488,1868,3,A
1781599027964,-5048,-16432,996,3,A
1781599027986,-3012,-18064,-72,3,A
1781599028007,-2044,-18604,-380,3,A
1781599028029,-1004,-16984,-388,3,A
1781599028051,-864,-15300,576,3,A
1781599028072,548,-14264,352,3,A
1781599028094,-272,-13736,1120,3,A
1781599028115,-624,-15396,1324,3,A
1781599028137,196,-16632,-312,3,A
1781599028159,436,-17280,-1052,3,A
1781599028180,1832,-16776,-2632,3,A
1781599028202,1860,-14812,-2432,3,A
1781599028223,-356,-14724,-312,3,A
1781599028245,1848,-17584,-764,3,A
1781599028267,2500,-18088,-356,3,A
1781599028288,200,-17320,1600,3,A
1781599028310,-2232,-16156,3056,3,A
1781599028332,-2348,-15660,2028,3,A
1781599028353,-1552,-16208,920,3,A
1781599028376,-2136,-17156,808,3,A
1781599028397,-2252,-17736,1228,3,A
1781599028418,-2196,-17260,1328,3,A
1781599028440,-2092,-17196,2072,3,A
1781599028461,-964,-17336,1712,3,A
1781599028484,-1564,-14896,1992,3,A
1781599028509,-812,-13900,1000,3,A
1781599028527,2004,-15552,-484,3,A
1781599028547,1324,-16208,804,3,A
1781599028569,-456,-16888,2072,3,A
1781599028591,840,-19832,376,3,A
1781599028613,4072,-20160,-3060,3,A
1781599028635,192,-14548,-400,3,A
1781599028656,-1156,-10864,-556,3,A
1781599028677,-2772,-10716,1240,3,A
1781599028699,-1464,-12860,372,3,A
1781599028721,-416,-17204,-56,3,A
1781599028742,-476,-19828,236,3,A
1781599028764,-1052,-20164,408,3,A
1781599028786,-2768,-17476,1264,3,A
1781599028808,-4776,-15044,2280,3,A
1781599028829,-6064,-13448,3660,3,A
1781599028850,-5316,-14000,3880,3,A
1781599028872,-2112,-16324,2260,3,A
1781599028894,-984,-17388,2232,3,A
1781599028915,-344,-18008,1792,3,A
1781599028937,-204,-17744,1772,3,A
1781599028958,604,-16780,1004,3,A
1781599028980,144,-15696,1000,3,A
1781599029002,-1880,-15312,2692,3,A
1781599029023,-4104,-14644,3780,3,A
1781599029045,-2020,-16064,1264,3,A
1781599029067,-1876,-17916,1036,3,A
1781599029088,-2604,-18760,1292,3,A
1781599029110,-348,-19024,-820,3,A
1781599029132,-152,-16292,-236,3,A
1781599029153,-2328,-13096,1968,3,A
1781599029175,-3256,-11732,3044,3,A
1781599029197,-2096,-12660,2748,3,A
1781599029218,672,-13352,796,3,A
1781599029240,-316,-15932,2600,3,A
1781599029261,312,-16800,1232,3,A
1781599029283,136,-19540,628,3,A
1781599029305,4432,-20820,-3804,3,A
1781599029326,3324,-17856,-3248,3,A
1781599029348,-1812,-15680,1144,3,A
1781599029369,-3408,-13764,3364,3,A
1781599029391,-3732,-14216,4300,3,A
1781599029413,-2620,-15348,3452,3,A
1781599029435,-2884,-16188,3476,3,A
1781599029457,-3312,-16924,3480,3,A
1781599029478,-2880,-17316,3164,3,A
1781599029499,-1588,-17088,2532,3,A
1781599029521,-876,-16684,2360,3,A
1781599029544,-1968,-16036,3512,3,A
1781599029564,-2332,-16136,4220,3,A
1781599029596,-2300,-15852,3752,3,A
1781599029611,-1312,-15720,2252,3,A
1781599029629,-600,-15696,1156,3,A
1781599029651,-960,-17372,1416,3,A
1781599029672,336,-18844,364,3,A
1781599029694,1480,-19424,-512,3,A
1781599029715,1116,-16780,-164,3,A
1781599029738,-1416,-13232,1644,3,A
1781599029759,-2648,-11440,2724,3,A
1781599029780,-4176,-11648,3548,3,A
1781599029802,-2348,-14264,2184,3,A
1781599029824,-460,-17108,1224,3,A
1781599029846,1336,-17836,-544,3,A
1781599029867,-232,-18972,752,3,A
1781599029888,-3624,-17336,2928,3,A
1781599029911,-4320,-15740,2180,3,A
1781599029932,-3920,-15384,972,3,A
1781599029954,-4640,-14120,1120,3,A
1781599029975,-4236,-13136,668,3,A
1781599029998,-4252,-15452,1624,3,A
1781599030019,-3168,-17068,1580,3,A
1781599030040,-2156,-17924,1848,3,A
1781599030062,-2444,-17592,2552,3,A
1781599030083,-2736,-17940,2956,3,A
1781599030105,-1588,-17832,1908,3,A
1781599030127,-2004,-17100,2088,3,A
1781599030148,-2720,-15996,1956,3,A
1781599030170,-2264,-15312,1808,3,A
1781599030192,-2496,-13952,2336,3,A
1781599030213,-2312,-14152,2288,3,A
1781599030235,-708,-17044,976,3,A
1781599030256,-24,-19504,220,3,A
1781599030277,332,-21440,-632,3,A
1781599030299,2148,-19196,-2820,3,A
1781599030321,-196,-15668,-832,3,A
1781599030343,-2336,-12480,1060,3,A
1781599030364,-4196,-11412,2632,3,A
1781599030386,-4504,-12028,3232,3,A
1781599030408,-3480,-12308,2124,3,A
1781599030429,-1204,-15360,772,3,A
1781599030451,-1064,-17148,1800,3,A
1781599030473,96,-18612,932,3,A
1781599030494,2024,-19536,-1032,3,A
1781599030517,1112,-19216,-68,3,A
1781599030538,-1008,-17420,1608,3,A
1781599030559,-2808,-16136,3320,3,A
1781599030583,-3520,-15720,4532,3,A
1781599030603,-2968,-14696,4608,3,A
1781599030624,-2024,-14868,3064,3,A
1781599030644,-604,-16772,2140,3,A
1781599030667,-932,-17104,1960,3,A
1781599030690,-1212,-17028,1924,3,A
1781599030713,-1744,-17360,2144,3,A
1781599030733,-3608,-17108,4000,3,A
1781599030755,-3340,-16052,3660,3,A
1781599030777,-1368,-15536,1576,3,A
1781599030798,1008,-15484,-276,3,A
1781599030819,576,-16732,716,3,A
1781599030842,100,-18156,1248,3,A
1781599030863,844,-17664,-132,3,A
1781599030884,768,-14948,-1024,3,A
1781599030907,-1376,-10932,-68,3,A
1781599030928,-2268,-11072,656,3,A
1781599030949,-2188,-12456,772,3,A
1781599030972,-4292,-14888,2776,3,A
1781599030993,-4196,-18160,2728,3,A
1781599031015,-2824,-21036,1084,3,A
1781599031036,-2728,-22132,0,3,A
1781599031058,-5052,-18052,1804,3,A
1781599031080,-5560,-14836,2332,3,A
1781599031101,-3720,-13776,1916,3,A
1781599031122,-1348,-14936,1552,3,A
1781599031144,-712,-15604,2460,3,A
1781599031166,416,-16412,1956,3,A
1781599031187,688,-17232,1648,3,A
1781599031209,-1876,-16976,2876,3,A
1781599031231,-3632,-16204,2724,3,A
1781599031253,-4328,-16340,2220,3,A
1781599031274,-4248,-16260,2024,3,A
1781599031296,-3644,-15628,1776,3,A
1781599031317,-2316,-14916,1904,3,A
1781599031339,-1876,-16604,2300,3,A
1781599031361,608,-17764,-128,3,A
1781599031382,3468,-19880,-2972,3,A
1781599031404,1352,-18876,-1432,3,A
1781599031425,-3876,-14620,1812,3,A
1781599031447,-5048,-11852,1552,3,A
1781599031469,-4676,-10504,976,3,A
1781599031490,-2356,-12984,28,3,A
1781599031512,-452,-14084,-660,3,A
1781599031534,-648,-15764,980,3,A
1781599031555,-540,-17200,2452,3,A
1781599031577,1024,-18772,2176,3,A
1781599031598,1872,-19016,1892,3,A
1781599031621,1416,-18132,1764,3,A
1781599031642,-332,-17384,2080,3,A
1781599031663,-1488,-18072,1692,3,A
1781599031685,-3204,-17640,1376,3,A
1781599031706,-4568,-17024,1704,3,A
1781599031728,-6212,-17488,2412,3,A
1781599031750,-4964,-16500,2656,3,A
1781599031771,-2096,-14932,1716,3,A
1781599031799,-888,-14212,2504,3,A
1781599031816,-68,-15252,3884,3,A
1781599031836,1588,-16500,3868,3,A
1781599031858,2480,-16684,3204,3,A
1781599031880,2524,-15188,2592,3,A
1781599031901,1408,-18196,372,3,A
1781599031923,7544,-23464,-6856,3,A
1781599031944,8004,-19364,-7816,3,A
1781599031966,-4176,-13220,1476,3,A
1781599031987,-8716,-8928,5168,3,A
1781599032009,-8316,-8100,5228,3,A
1781599032031,-4180,-10092,1828,3,A
1781599032052,-1420,-14964,-496,3,A
1781599032074,-936,-18804,252,3,A
1781599032096,-1964,-20184,1700,3,A
1781599032118,-2896,-20048,3052,3,A
1781599032139,-2400,-17240,2688,3,A
1781599032160,-1972,-15812,2596,3,A
1781599032182,-1472,-15628,2660,3,A
1781599032204,-864,-16188,2484,3,A
1781599032225,-256,-16484,1884,3,A
1781599032246,-948,-16160,1824,3,A
1781599032269,-1544,-17008,1840,3,A
1781599032291,-1976,-17736,1724,3,A
1781599032312,-2356,-17616,2024,3,A
1781599032333,-2636,-15852,2256,3,A
1781599032355,-2804,-14828,2512,3,A
1781599032377,-2444,-15484,2508,3,A
1781599032398,-1748,-15832,2060,3,A
1781599032420,-1240,-16900,1612,3,A
1781599032440,-176,-17936,764,3,A
1781599032462,0,-18492,344,3,A
1781599032485,616,-19472,-360,3,A
1781599032507,2620,-17916,-2396,3,A
1781599032527,196,-16084,-592,3,A
1781599032549,-1764,-13208,332,3,A
1781599032571,-2272,-11032,1064,3,A
1781599032592,-1544,-9900,812,3,A
1781599032614,-544,-11440,684,3,A
1781599032635,528,-15652,584,3,A
1781599032657,1000,-18716,340,3,A
1781599032679,3932,-21184,-2620,3,A
1781599032700,4228,-21548,-2748,3,A
1781599032722,28,-18296,1116,3,A
1781599032743,-2384,-15640,3400,3,A
1781599032766,-3168,-15260,4536,3,A
1781599032787,-648,-16212,2468,3,A
1781599032808,188,-17028,1392,3,A
1781599032830,-352,-17124,1084,3,A
1781599032852,-684,-16452,732,3,A
1781599032879,-1352,-14764,1088,3,A
1781599032895,-2400,-14512,2388,3,A
1781599032917,-1600,-16800,2684,3,A
1781599032937,796,-17936,1748,3,A
1781599032959,1820,-17896,1252,3,A
1781599032982,1780,-17060,920,3,A
1781599033002,1908,-18088,744,3,A
1781599033024,3420,-17632,-892,3,A
1781599033047,2296,-14824,-892,3,A
1781599033068,-1264,-13284,784,3,A
1781599033090,-3728,-13292,1464,3,A
1781599033111,-2448,-14144,132,3,A
1781599033132,-104,-14308,-1116,3,A
1781599033154,84,-15328,-100,3,A
1781599033176,268,-16664,712,3,A
1781599033198,-688,-17724,1912,3,A
1781599033219,-1024,-17668,1448,3,A
1781599033240,-2484,-17476,1804,3,A
1781599033262,-3380,-16008,1152,3,A
1781599033283,-3580,-15132,1224,3,A
1781599033305,-4372,-14976,2712,3,A
1781599033327,-2424,-15912,2532,3,A
1781599033349,-40,-17344,2328,3,A
1781599033370,1052,-17400,2584,3,A
1781599033392,1284,-17400,2636,3,A
1781599033413,1380,-16848,1832,3,A
1781599033435,-380,-16280,1940,3,A
1781599033457,-1984,-16492,2304,3,A
1781599033479,-2504,-16460,2324,3,A
1781599033500,-2604,-15508,1936,3,A
1781599033521,-2128,-15836,1240,3,A
1781599033543,-1172,-16916,300,3,A
1781599033564,-1956,-18264,452,3,A
1781599033586,-1048,-20448,-72,3,A
1781599033608,2104,-19932,-3068,3,A
1781599033629,-68,-14560,-1356,3,A
1781599033651,-2704,-10556,404,3,A
1781599033673,-5052,-8924,2064,3,A
1781599033694,-5548,-10360,3088,3,A
1781599033715,-2492,-14524,1096,3,A
1781599033738,-728,-17456,700,3,A
1781599033759,-376,-20328,920,3,A
1781599033781,1460,-21860,208,3,A
1781599033802,2760,-19440,-408,3,A
1781599033824,172,-16496,1628,3,A
1781599033845,-444,-14324,1976,3,A
1781599033867,-1756,-14340,3164,3,A
1781599033888,-1680,-15924,2888,3,A
1781599033910,-1556,-16980,2416,3,A
1781599033932,-2456,-17260,2428,3,A
1781599033953,-2844,-16920,2456,3,A
1781599033979,-2152,-16784,1916,3,A
1781599033997,-1504,-16648,2068,3,A
1781599034018,-1008,-16248,2740,3,A
1781599034040,-800,-15852,3208,3,A
1781599034061,-480,-16536,3412,3,A
1781599034084,-296,-16564,2692,3,A
1781599034105,152,-16496,1796,3,A
1781599034126,112,-16292,1384,3,A
1781599034147,128,-16348,796,3,A
1781599034170,1884,-19192,-1716,3,A
1781599034191,3576,-19004,-3632,3,A
1781599034213,-960,-14696,-464,3,A
1781599034235,-4068,-10568,2104,3,A
1781599034256,-4600,-9436,2900,3,A
1781599034278,-3128,-11328,1576,3,A
1781599034300,-1360,-14640,444,3,A
1781599034321,-3096,-17040,1632,3,A
1781599034343,-4840,-19316,2984,3,A
1781599034364,-2552,-20524,580,3,A
1781599034385,-2132,-18264,800,3,A
1781599034408,-3940,-15760,2612,3,A
1781599034430,-3304,-14788,2816,3,A
1781599034451,-1108,-14904,2440,3,A
1781599034472,528,-16348,2548,3,A
1781599034494,896,-16756,2668,3,A
1781599034516,-68,-17952,2484,3,A
1781599034538,-1644,-17692,2620,3,A
1781599034559,-2276,-17348,1724,3,A
1781599034580,-3436,-16876,2180,3,A
1781599034602,-3756,-15384,2168,3,A
1781599034624,-3536,-14440,2248,3,A
1781599034645,-3444,-15152,2496,3,A
1781599034667,-1816,-16892,1460,3,A
1781599034689,-104,-18512,128,3,A
1781599034710,1372,-19144,-1400,3,A
1781599034732,920,-17228,-1160,3,A
1781599034753,-1164,-14624,52,3,A
1781599034775,-1680,-13544,452,3,A
1781599034796,-1356,-13016,220,3,A
1781599034818,-1164,-12292,-240,3,A
1781599034840,-2476,-13120,1200,3,A
1781599034862,-2700,-15884,1676,3,A
1781599034883,-1400,-18728,1488,3,A
1781599034905,660,-20036,588,3,A
1781599034926,1216,-18884,664,3,A
1781599034948,44,-16604,1664,3,A
1781599034970,-1600,-15196,2656,3,A
1781599034991,-2060,-16072,2584,3,A
1781599035013,-1292,-17484,1272,3,A
1781599035034,-1840,-18348,1280,3,A
1781599035056,-2656,-17860,1736,3,A
1781599035078,-2924,-16032,2188,3,A
1781599035099,-2620,-15016,2656,3,A
1781599035121,-1408,-14428,2664,3,A
1781599035143,-28,-16160,2508,3,A
1781599035165,1452,-17320,1856,3,A
1781599035185,2108,-18332,984,3,A
1781599035207,2388,-18544,240,3,A
1781599035229,1292,-17916,-408,3,A
1781599035250,1396,-18352,-1480,3,A
1781599035272,1080,-16064,-1708,3,A
1781599035294,-996,-12780,-464,3,A
1781599035316,-3312,-10420,1832,3,A
1781599035337,-3028,-10896,1952,3,A
1781599035358,-404,-14080,96,3,A
1781599035380,1240,-16276,-844,3,A
1781599035402,-452,-17104,148,3,A
1781599035423,-2284,-19376,784,3,A
1781599035445,-2092,-18812,284,3,A
1781599035467,-4012,-16276,676,3,A
1781599035489,-5624,-14840,2316,3,A
1781599035511,-4652,-15196,2560,3,A
1781599035532,-1452,-16852,1524,3,A
1781599035553,644,-18448,1272,3,A
1781599035575,1832,-19288,1256,3,A
1781599035597,760,-18168,2088,3,A
1781599035618,-356,-16296,1348,3,A
1781599035640,-1680,-15220,996,3,A
1781599035662,-2300,-14932,712,3,A
1781599035684,-2464,-15216,352,3,A
1781599035705,-2136,-15720,52,3,A
1781599035726,-2048,-15728,16,3,A
1781599035747,-1840,-15812,-72,3,A
1781599035770,-1472,-15820,-248,3,A
1781599035791,-1536,-15872,-128,3,A
1781599035812,-1544,-16880,-92,3,A
1781599035834,-1568,-18096,-112,3,A
1781599035856,-484,-20476,-1656,3,A
1781599035878,2144,-19180,-3316,3,A
1781599035899,-432,-14732,-1068,3,A
1781599035921,-3760,-11764,1684,3,A
1781599035943,-5192,-11324,3944,3,A
1781599035965,-1856,-13348,2680,3,A
1781599035986,1288,-16368,1680,3,A
1781599036007,2120,-18156,1660,3,A
1781599036029,3208,-20220,740,3,A
1781599036051,2348,-20360,1112,3,A
1781599036072,-1108,-17740,2268,3,A
1781599036094,-1680,-15172,1280,3,A
1781599036115,-2208,-13872,452,3,A
1781599036138,-2264,-14064,-116,3,A
1781599036159,-2804,-16252,640,3,A
1781599036180,-2952,-17212,1484,3,A
1781599036202,-1512,-18716,1344,3,A
1781599036223,8,-18512,1340,3,A
1781599036245,348,-16952,2008,3,A
1781599036267,-24,-15908,2644,3,A
1781599036288,112,-15160,2492,3,A
1781599036309,-68,-14840,2016,3,A
1781599036332,-408,-14964,1276,3,A
1781599036353,-936,-15724,1356,3,A
1781599036377,-244,-17628,-80,3,A
1781599036398,2304,-18932,-2152,3,A
1781599036420,1472,-17300,-1700,3,A
1781599036441,-1088,-16712,-612,3,A
1781599036463,-1576,-16616,-1124,3,A
1781599036484,-2844,-15060,-456,3,A
1781599036506,-4656,-12932,944,3,A
1781599036527,-4108,-11732,440,3,A
1781599036550,-3992,-12332,908,3,A
1781599036571,-3744,-13644,1684,3,A
1781599036593,-3676,-15880,2340,3,A
1781599036614,-2000,-17212,1960,3,A
1781599036636,-1640,-19468,3184,3,A
1781599036657,-1660,-21020,3912,3,A
1781599036679,-292,-20988,2668,3,A
1781599036701,1740,-19320,660,3,A
1781599036722,-328,-16356,1556,3,A
1781599036744,-2028,-14376,2416,3,A
1781599036765,-2204,-13564,2104,3,A
1781599036787,-1900,-14048,1436,3,A
1781599036808,-2020,-14992,820,3,A
1781599036831,-3048,-16144,1284,3,A
1781599036852,-3240,-16800,1060,3,A
1781599036874,-2992,-15776,752,3,A
1781599036895,-2948,-15744,1192,3,A
1781599036917,-1976,-16652,736,3,A
1781599036938,-1408,-18152,628,3,A
1781599036960,36,-18784,-324,3,A
1781599036983,1420,-17104,-1648,3,A
1781599037004,-1088,-14756,-136,3,A
1781599037025,-3132,-13596,1380,3,A
1781599037047,-2932,-13484,1964,3,A
1781599037069,-1016,-14776,1300,3,A
1781599037090,132,-16388,1688,3,A
1781599037112,692,-17220,2152,3,A
1781599037133,2216,-17164,1424,3,A
1781599037154,2196,-17660,764,3,A
1781599037176,696,-17288,816,3,A
1781599037197,-888,-15980,916,3,A
1781599037219,-2400,-14980,1228,3,A
1781599037241,-4100,-15488,2808,3,A
1781599037264,-4036,-16844,3368,3,A
1781599037284,-1132,-17100,2080,3,A
1781599037305,-596,-17688,2940,3,A
1781599037328,-348,-17844,2972,3,A
1781599037348,496,-16512,2212,3,A
1781599037370,88,-15456,2184,3,A
1781599037393,-736,-15212,2408,3,A
1781599037413,-1448,-15256,2660,3,A
1781599037436,-852,-15880,2048,3,A
1781599037457,584,-16040,976,3,A
1781599037478,-308,-15900,1664,3,A
1781599037500,-12,-18824,940,3,A
1781599037522,2964,-21740,-1300,3,A
1781599037544,1972,-16364,-580,3,A
1781599037565,-2000,-12700,2340,3,A
1781599037586,-4432,-11044,3912,3,A
1781599037608,-4036,-11892,2636,3,A
1781599037629,-576,-15000,128,3,A
1781599037651,936,-17656,-1100,3,A
1781599037673,1164,-18920,-1532,3,A
1781599037695,-1396,-17536,-36,3,A
1781599037716,-4120,-14300,1364,3,A
1781599037738,-5796,-13808,2464,3,A
1781599037759,-5184,-14008,1952,3,A
1781599037780,-2832,-16932,1132,3,A
1781599037803,-1656,-18984,1812,3,A
1781599037824,-508,-19688,2196,3,A
1781599037845,856,-18732,1764,3,A
1781599037867,644,-17060,1584,3,A
1781599037889,-1480,-15328,2396,3,A
1781599037911,-2340,-14568,2436,3,A
1781599037932,-1960,-15520,1900,3,A
1781599037954,-1000,-16336,1184,3,A
1781599037976,-24,-15908,264,3,A
1781599037998,-2228,-15136,1392,3,A
1781599038020,-4548,-15528,2204,3,A
1781599038041,-2704,-16396,100,3,A
1781599038062,-1816,-15700,-500,3,A
1781599038083,-5068,-17288,2796,3,A
1781599038105,56,-20560,340,3,A
1781599038126,5288,-20096,-988,3,A
1781599038149,3196,-15740,2316,3,A
1781599038170,-572,-11204,5612,3,A
1781599038192,-1176,-10060,5164,3,A
1781599038214,-1568,-13864,4632,3,A
1781599038235,-1032,-17660,3152,3,A
1781599038257,-1356,-19144,904,3,A
1781599038279,-2584,-19532,416,3,A
1781599038300,-4996,-16232,1208,3,A
1781599038322,-7008,-12540,4440,3,A
1781599038345,-3952,-13044,3880,3,A
1781599038364,1032,-15956,2456,3,A
1781599038386,1764,-18940,3564,3,A
1781599038408,3356,-20200,2932,3,A
1781599038430,3276,-18616,2376,3,A
1781599038452,1456,-15540,2476,3,A
1781599038473,1072,-14224,1472,3,A
1781599038494,-240,-13860,1652,3,A
1781599038517,-444,-15176,1936,3,A
1781599038537,120,-16508,1928,3,A
1781599038559,1340,-16896,1224,3,A
1781599038581,1108,-16608,1380,3,A
1781599038603,260,-15676,1820,3,A
1781599038624,-748,-15388,2428,3,A
1781599038646,-1188,-14968,2204,3,A
1781599038667,-104,-15480,1212,3,A
1781599038689,788,-16584,848,3,A
1781599038710,1832,-16964,-816,3,A
1781599038732,1336,-17316,-1936,3,A
1781599038754,-236,-16996,-2840,3,A
1781599038775,-4028,-15568,-292,3,A
1781599038797,-7644,-12500,2352,3,A
1781599038819,-9408,-11900,4760,3,A
1781599038841,-4748,-14356,1868,3,A
1781599038862,-2220,-18048,1472,3,A
1781599038884,-1720,-20288,3016,3,A
1781599038905,-16,-20748,3084,3,A
1781599038928,980,-19404,3356,3,A
1781599038948,-44,-16780,2840,3,A
1781599038970,-1108,-14724,1908,3,A
1781599038992,-2396,-14260,1332,3,A
1781599039013,-2568,-14520,812,3,A
1781599039035,-3200,-14940,1256,3,A
1781599039057,-3100,-15944,1400,3,A
1781599039078,-2808,-16596,1736,3,A
1781599039101,-1476,-17244,1184,3,A
1781599039122,-1164,-17076,1668,3,A
1781599039143,-984,-16328,1588,3,A
1781599039165,-1408,-15988,2024,3,A
1781599039187,-1172,-16032,1516,3,A
1781599039208,-636,-16400,768,3,A
1781599039230,-1320,-16352,696,3,A
1781599039252,-2724,-16144,1392,3,A
1781599039273,-2992,-15708,812,3,A
1781599039295,-2708,-15040,624,3,A
1781599039316,-2448,-14524,560,3,A
1781599039339,-1364,-15372,356,3,A
1781599039359,-508,-16340,-16,3,A
1781599039381,368,-17032,-448,3,A
1781599039402,136,-17512,60,3,A
1781599039424,-912,-18412,1472,3,A
1781599039445,872,-17528,724,3,A
1781599039468,1712,-16108,348,3,A
1781599039489,-68,-14048,1812,3,A
1781599039511,-2844,-12748,4200,3,A
1781599039532,-3392,-13740,4868,3,A
1781599039553,-504,-16732,3076,3,A
1781599039575,548,-18092,2364,3,A
1781599039597,604,-18952,1860,3,A
1781599039618,76,-18400,1652,3,A
1781599039640,-492,-16040,1588,3,A
1781599039662,-1204,-15056,1848,3,A
1781599039683,-1312,-16208,2076,3,A
1781599039705,-876,-16876,2340,3,A
1781599039727,-232,-16632,2344,3,A
1781599039748,172,-16176,2516,3,A
1781599039770,392,-15964,2556,3,A
1781599039792,628,-16116,2120,3,A
1781599039813,588,-16088,1604,3,A
1781599039834,-76,-16300,1496,3,A
1781599039856,-784,-15920,1696,3,A
1781599039878,-1164,-15864,1924,3,A
1781599039899,-856,-15284,1664,3,A
1781599039921,-420,-14536,1532,3,A
1781599039943,-1048,-14600,2884,3,A
1781599039965,-1176,-16084,3452,3,A
1781599039986,556,-17028,3212,3,A
1781599040008,216,-17928,2736,3,A
1781599040029,2488,-22232,-756,3,A
1781599040051,5360,-23644,-4708,3,A
1781599040072,312,-15764,-1712,3,A
1781599040094,-6040,-8768,2268,3,A
1781599040116,-9924,-6080,5092,3,A
1781599040137,-9580,-7728,5304,3,A
1781599040159,-6804,-15144,5096,3,A
1781599040180,-2268,-20768,2584,3,A
1781599040202,2968,-24984,692,3,A
1781599040224,4288,-23604,1532,3,A
1781599040245,1392,-18224,3708,3,A
1781599040268,-1748,-13804,4672,3,A
1781599040289,-2780,-12676,4088,3,A
1781599040310,-2060,-13232,2392,3,A
1781599040332,-1136,-14708,1572,3,A
1781599040354,-1896,-15404,2628,3,A
1781599040375,-2384,-16008,3312,3,A
1781599040397,-3184,-15948,3300,3,A
1781599040419,-3244,-16856,3176,3,A
1781599040440,-3264,-16360,3056,3,A
1781599040462,-3532,-15800,3576,3,A
1781599040484,-3468,-16328,3700,3,A
1781599040505,-2592,-17012,3176,3,A
1781599040526,-2740,-16524,2952,3,A
1781599040548,-2056,-18288,1984,3,A
1781599040569,-1488,-16732,748,3,A
1781599040592,-3164,-19340,1904,3,A
1781599040613,-936,-21152,-252,3,A
1781599040635,1268,-21792,-1380,3,A
1781599040656,-2380,-17644,1932,3,A
1781599040679,-2784,-14692,2380,3,A
1781599040700,-432,-12492,364,3,A
1781599040721,2132,-12820,-1788,3,A
1781599040743,3172,-12612,-2416,3,A
1781599040765,2244,-13724,-1988,3,A
1781599040786,480,-15764,-140,3,A
1781599040808,348,-16156,424,3,A
1781599040830,140,-17000,1268,3,A
1781599040850,24,-17644,1912,3,A
1781599040872,-480,-18440,2500,3,A
1781599040894,-228,-18164,1420,3,A
1781599040915,-108,-17148,708,3,A
1781599040938,-1196,-15072,1224,3,A
1781599040959,-1788,-13520,1492,3,A
1781599040981,-2024,-13160,2040,3,A
1781599041002,-1148,-14428,2340,3,A
1781599041024,-440,-15796,2456,3,A
1781599041045,-660,-16856,3248,3,A
1781599041067,36,-16892,2740,3,A
1781599041089,160,-16476,2696,3,A
1781599041110,300,-15892,2668,3,A
1781599041131,200,-15640,2728,3,A
1781599041153,344,-16276,2712,3,A
1781599041174,596,-18020,2428,3,A
1781599041196,1380,-18000,1036,3,A
1781599041218,120,-17516,760,3,A
1781599041239,-1620,-17744,364,3,A
1781599041260,-2292,-17364,-468,3,A
1781599041283,-2444,-17012,-756,3,A
1781599041305,-264,-18752,-1812,3,A
1781599041326,2016,-17044,-2316,3,A
1781599041347,1556,-15564,-1432,3,A
1781599041369,-20,-13508,-24,3,A
1781599041391,-1672,-12284,1108,3,A
1781599041412,-1420,-15828,1300,3,A
1781599041434,-304,-18680,492,3,A
1781599041456,-44,-19860,-80,3,A
1781599041477,1036,-19584,-2096,3,A
1781599041498,-44,-17156,-1828,3,A
1781599041521,-1316,-13832,-1320,3,A
1781599041542,-2552,-12172,-316,3,A
1781599041564,-1604,-12960,-556,3,A
1781599041585,-304,-15528,-592,3,A
1781599041606,436,-16732,-320,3,A
1781599041628,1092,-16932,-836,3,A
1781599041650,376,-16780,-1496,3,A
1781599041672,-52,-17504,-3040,3,A
1781599041693,-160,-17596,-3300,3,A
1781599041715,-3660,-16328,-556,3,A
1781599041737,-5664,-14432,1740,3,A
1781599041759,-3784,-13784,1168,3,A
1781599041779,-156,-15656,-524,3,A
1781599041801,1500,-17048,-1096,3,A
1781599041823,2012,-17360,-1052,3,A
1781599041845,760,-16688,-564,3,A
1781599041866,-1016,-16488,580,3,A
1781599041888,-1388,-15720,-484,3,A
1781599041910,-1664,-16184,-536,3,A
1781599041931,-1380,-17160,-788,3,A
1781599041953,-1492,-17480,-488,3,A
1781599041975,-1160,-16768,-484,3,A
1781599041997,-1420,-16276,-332,3,A
1781599042018,-1328,-16304,-336,3,A
1781599042040,-936,-16040,-668,3,A
1781599042062,-1148,-15496,-644,3,A
1781599042084,-1584,-15376,-204,3,A
1781599042106,-1200,-16120,-480,3,A
1781599042127,-1016,-16004,-956,3,A
1781599042149,-708,-15572,-1332,3,A
1781599042171,-1172,-15272,-1180,3,A
1781599042192,-960,-15072,-1344,3,A
1781599042214,-696,-14720,-1400,3,A
1781599042236,-948,-14216,-920,3,A
1781599042257,-1148,-14092,-384,3,A
1781599042279,-1412,-16248,636,3,A
1781599042300,1068,-18820,-160,3,A
1781599042322,2152,-20464,-72,3,A
1781599042344,1048,-21500,1540,3,A
1781599042365,-1096,-22164,3384,3,A
1781599042386,724,-21952,2340,3,A
1781599042409,148,-18764,2332,3,A
1781599042430,-2476,-14836,3352,3,A
1781599042452,-5012,-13904,5220,3,A
1781599042473,-3660,-13948,4660,3,A
1781599042495,-604,-13556,2164,3,A
1781599042517,960,-14020,1748,3,A
1781599042537,616,-13932,3328,3,A
1781599042560,24,-14848,3572,3,A
1781599042581,624,-16580,3024,3,A
1781599042602,404,-18168,2512,3,A
1781599042624,-1148,-20144,3060,3,A
1781599042646,-2112,-20028,3160,3,A
1781599042668,-2056,-16608,2716,3,A
1781599042695,-1300,-13524,2092,3,A
1781599042711,-1492,-13156,2564,3,A
1781599042732,-572,-14360,2320,3,A
1781599042754,780,-14544,2092,3,A
1781599042775,2216,-15508,460,3,A
1781599042797,1908,-16244,564,3,A
1781599042818,1384,-14636,-124,3,A
1781599042840,1976,-14108,-1256,3,A
1781599042862,828,-14380,-968,3,A
1781599042883,-1948,-15652,2108,3,A
1781599042905,-424,-15164,864,3,A
1781599042927,-588,-15932,1432,3,A
1781599042948,-836,-16912,1552,3,A
1781599042971,-3340,-20176,3024,3,A
1781599042992,-732,-23388,664,3,A
1781599043014,-3844,-19176,4676,3,A
1781599043035,-6788,-13016,6936,3,A
1781599043057,-5152,-11244,6316,3,A
1781599043078,-944,-14068,4348,3,A
1781599043100,1880,-16732,2816,3,A
1781599043122,2968,-18680,2908,3,A
1781599043143,2604,-19328,2764,3,A
1781599043165,868,-17940,2292,3,A
1781599043186,-2044,-15632,2744,3,A
1781599043208,-3900,-14716,3072,3,A
1781599043229,-4216,-14420,3004,3,A
1781599043250,-4240,-14956,2672,3,A
1781599043273,-4040,-15720,3060,3,A
1781599043295,-4092,-15572,3700,3,A
1781599043316,-2888,-15968,3636,3,A
1781599043337,-1316,-15812,2668,3,A
1781599043359,-848,-16420,2560,3,A
1781599043381,-1324,-16280,2816,3,A
1781599043402,-2384,-15808,3160,3,A
1781599043424,-2748,-16140,3444,3,A
1781599043446,-2792,-16064,3080,3,A
1781599043468,-3068,-16316,3408,3,A
1781599043489,-3104,-16212,2872,3,A
1781599043511,-2752,-16000,2588,3,A
1781599043532,-2604,-15604,2204,3,A
1781599043554,-2672,-16384,2456,3,A
1781599043575,-900,-16628,1220,3,A
1781599043597,-1032,-18560,1104,3,A
1781599043618,-1960,-20048,2828,3,A
1781599043640,-2596,-20968,604,3,A
1781599043662,-1488,-19472,-428,3,A
1781599043684,-1676,-15524,-180,3,A
1781599043706,-480,-13628,-360,3,A
1781599043726,856,-12632,-200,3,A
1781599043748,2424,-12796,-500,3,A
1781599043774,4696,-14100,-2104,3,A
1781599043791,3500,-16032,-1420,3,A
1781599043813,-236,-17736,1400,3,A
1781599043835,-2788,-18892,2624,3,A
1781599043856,-3228,-19436,2560,3,A
1781599043878,-1884,-18832,1452,3,A
1781599043899,-540,-16612,648,3,A
1781599043921,-1100,-14124,1636,3,A
1781599043943,-688,-12120,1400,3,A
1781599043965,-400,-12348,1688,3,A
1781599043986,688,-14756,1668,3,A
1781599044007,884,-16812,1856,3,A
1781599044029,1068,-18000,1488,3,A
1781599044050,484,-18188,1560,3,A
1781599044073,-1492,-15948,2376,3,A
1781599044094,-2972,-14684,2932,3,A
1781599044116,-2320,-14536,2248,3,A
1781599044137,-876,-16484,1904,3,A
1781599044159,-688,-17544,2264,3,A
1781599044180,448,-17032,1720,3,A
1781599044202,160,-15940,2116,3,A
1781599044224,-856,-15684,2956,3,A
1781599044245,-268,-16132,1736,3,A
1781599044267,764,-16612,-220,3,A
1781599044288,360,-18904,-676,3,A
1781599044310,1164,-19228,-1176,3,A
1781599044332,940,-16704,-272,3,A
1781599044353,-184,-14864,1412,3,A
1781599044375,56,-13400,1380,3,A
1781599044396,-168,-13668,464,3,A
1781599044418,-24,-16048,-392,3,A
1781599044440,-328,-16224,-2144,3,A
1781599044461,-1120,-16848,-1796,3,A
1781599044483,-2512,-16728,-704,3,A
1781599044504,-2696,-17400,-48,3,A
1781599044526,-804,-17780,-676,3,A
1781599044548,400,-17120,-520,3,A
1781599044568,756,-16516,84,3,A
1781599044590,856,-16692,620,3,A
1781599044612,1272,-17008,272,3,A
1781599044634,1368,-16172,-528,3,A
1781599044656,-268,-16036,-384,3,A
1781599044676,-668,-16056,-644,3,A
1781599044700,-524,-16032,-1076,3,A
1781599044722,1772,-16192,-2648,3,A
1781599044742,-1480,-16440,64,3,A
1781599044764,-852,-15824,-696,3,A
1781599044785,-1000,-15948,-740,3,A
1781599044807,-376,-16156,-1588,3,A
1781599044829,-56,-15816,-1752,3,A
1781599044850,-976,-15308,-840,3,A
1781599044872,-864,-15600,-1664,3,A
1781599044892,-952,-15804,-1364,3,A
1781599044914,-1192,-15956,-1364,3,A
1781599044937,-1236,-15088,-1220,3,A
1781599044958,-2596,-15088,668,3,A
1781599044980,-1860,-16548,1668,3,A
1781599045001,840,-17348,1676,3,A
1781599045023,2400,-18564,2332,3,A
1781599045045,1912,-19672,3592,3,A
1781599045066,2552,-20248,3128,3,A
1781599045088,3440,-20544,2356,3,A
1781599045109,1824,-19108,3312,3,A
1781599045131,464,-16740,3508,3,A
1781599045153,-504,-14880,3736,3,A
1781599045174,-500,-13860,3316,3,A
1781599045196,-504,-13524,3240,3,A
1781599045218,348,-14072,2560,3,A
1781599045239,388,-14696,2416,3,A
1781599045260,164,-15052,2624,3,A
1781599045282,480,-15552,2520,3,A
1781599045303,508,-16600,2752,3,A
1781599045325,-304,-17316,3472,3,A
1781599045347,-280,-17332,3428,3,A
1781599045368,348,-17036,2776,3,A
1781599045390,412,-16960,2872,3,A
1781599045411,288,-15692,2628,3,A
1781599045433,224,-15132,2420,3,A
1781599045455,304,-14192,1748,3,A
1781599045476,280,-15144,1964,3,A
1781599045498,408,-15868,1848,3,A
1781599045519,932,-16328,1584,3,A
1781599045541,520,-16484,1272,3,A
1781599045562,748,-14704,768,3,A
1781599045584,356,-12504,320,3,A
1781599045605,-132,-12544,488,3,A
1781599045627,-1004,-16264,1264,3,A
1781599045649,-1400,-20556,2648,3,A
1781599045670,-336,-19884,2148,3,A
1781599045692,-88,-19940,1400,3,A
1781599045714,1092,-19920,260,3,A
1781599045734,-280,-16120,1108,3,A
1781599045757,-2872,-12532,3180,3,A
1781599045778,-4204,-10668,4136,3,A
1781599045800,-4156,-10972,4308,3,A
1781599045823,-4412,-14300,5148,3,A
1781599045843,-4384,-17664,5888,3,A
1781599045865,-1688,-20072,3928,3,A
1781599045886,848,-20984,1652,3,A
1781599045908,616,-18712,2012,3,A
1781599045929,-1764,-15372,3856,3,A
1781599045951,-2676,-13840,4720,3,A
1781599045973,-1036,-14532,3556,3,A
1781599045994,676,-15068,2584,3,A
1781599046016,736,-15248,2552,3,A
1781599046037,-356,-15400,2912,3,A
1781599046059,-1540,-15880,3456,3,A
1781599046081,-2024,-16688,3420,3,A
1781599046103,-2480,-17240,3716,3,A
1781599046124,-3176,-17096,4100,3,A
1781599046146,-2632,-16904,3640,3,A
1781599046168,-2636,-17116,4192,3,A
1781599046189,-2132,-17648,4048,3,A
1781599046210,-568,-17976,2508,3,A
1781599046232,1084,-17124,648,3,A
1781599046254,304,-16524,392,3,A
1781599046275,-708,-17168,100,3,A
1781599046297,-1240,-17868,-20,3,A
1781599046319,-3472,-18472,1412,3,A
1781599046341,-5844,-17832,3480,3,A
1781599046362,-4900,-16220,3200,3,A
1781599046383,-700,-16120,696,3,A
1781599046405,2344,-15948,-728,3,A
1781599046427,4552,-14640,-1792,3,A
1781599046448,5804,-13604,-2476,3,A
1781599046470,4172,-13472,-992,3,A
1781599046491,2136,-13764,628,3,A
1781599046513,396,-14624,2092,3,A
1781599046535,-416,-16696,2532,3,A
1781599046556,-832,-17676,2796,3,A
1781599046577,64,-18944,2004,3,A
1781599046599,244,-18712,2108,3,A
1781599046620,372,-15884,2052,3,A
1781599046642,-336,-14152,2824,3,A
1781599046663,432,-13636,2136,3,A
1781599046685,1472,-14076,1708,3,A
1781599046707,2144,-14856,852,3,A
1781599046728,1868,-15980,952,3,A
1781599046750,-664,-16116,3180,3,A
1781599046772,-1204,-16040,3792,3,A
1781599046794,-1084,-16604,3892,3,A
1781599046816,604,-17112,2776,3,A
1781599046836,992,-17500,2452,3,A
1781599046858,1748,-18072,1684,3,A
1781599046879,1768,-17620,808,3,A
1781599046901,884,-17720,272,3,A
1781599046923,1732,-17876,-1292,3,A
1781599046945,960,-16952,-596,3,A
1781599046966,-452,-15676,352,3,A
1781599046988,-220,-15176,-84,3,A
1781599047009,1300,-15980,-1444,3,A
1781599047031,1312,-15388,-1484,3,A
1781599047052,96,-15008,-1292,3,A
1781599047074,-1048,-15636,-816,3,A
1781599047096,-1312,-15704,-316,3,A
1781599047117,-576,-17076,-344,3,A
1781599047140,484,-17688,-448,3,A
1781599047161,244,-17440,-52,3,A
1781599047182,-4,-16204,-156,3,A
1781599047204,244,-15792,-616,3,A
1781599047226,-12,-16668,-256,3,A
1781599047247,-24,-17024,-272,3,A
1781599047268,-368,-16740,-588,3,A
1781599047290,-860,-16064,-532,3,A
1781599047312,-1124,-15680,-464,3,A
1781599047334,-1068,-16360,-460,3,A
1781599047355,-340,-17108,-1156,3,A
1781599047377,-380,-15352,-1104,3,A
1781599047398,172,-19944,-1036,3,A
1781599047419,-364,-16544,-828,3,A
1781599047441,-1396,-15744,420,3,A
1781599047463,180,-15772,-320,3,A
1781599047484,316,-16132,-108,3,A
1781599047506,932,-15724,-472,3,A
1781599047527,1040,-15132,-504,3,A
1781599047549,968,-15004,-424,3,A
1781599047570,424,-15316,-112,3,A
1781599047593,308,-16496,-252,3,A
1781599047614,-840,-15816,-424,3,A
1781599047636,456,-15344,-668,3,A
1781599047657,-224,-15232,24,3,A
1781599047678,-12,-16260,220,3,A
1781599047700,836,-17660,-276,3,A
1781599047722,-180,-18512,1080,3,A
1781599047744,-2580,-18212,2904,3,A
1781599047765,-1976,-20432,2976,3,A
1781599047786,2052,-19000,764,3,A
1781599047809,2856,-20192,2168,3,A
1781599047832,2640,-18396,3632,3,A
1781599047853,2964,-17512,3272,3,A
1781599047875,2340,-16412,2748,3,A
1781599047896,1272,-15144,2372,3,A
1781599047917,504,-14152,1812,3,A
1781599047939,172,-13980,1472,3,A
1781599047961,912,-14916,1340,3,A
1781599047983,896,-16448,2488,3,A
1781599048004,764,-17460,3424,3,A
1781599048025,1496,-17848,2760,3,A
1781599048047,2448,-16908,1720,3,A
1781599048069,2808,-15788,636,3,A
1781599048090,2048,-15372,288,3,A
1781599048111,708,-14956,900,3,A
1781599048133,-376,-15424,1016,3,A
1781599048155,132,-15584,796,3,A
1781599048176,1052,-15508,644,3,A
1781599048198,1448,-15212,888,3,A
1781599048220,1092,-15148,1708,3,A
1781599048241,1900,-15652,1156,3,A
1781599048263,2616,-15776,544,3,A
1781599048285,1708,-15320,428,3,A
1781599048306,1256,-14584,292,3,A
1781599048327,564,-14712,-164,3,A
1781599048349,236,-17944,-380,3,A
1781599048371,480,-19508,-904,3,A
1781599048392,-1880,-19740,748,3,A
1781599048414,-2548,-18520,1076,3,A
1781599048436,-2552,-16652,1232,3,A
1781599048457,-3560,-15360,2856,3,A
1781599048479,-4108,-14460,3856,3,A
1781599048500,-4116,-13704,4220,3,A
1781599048522,-2688,-14636,3088,3,A
1781599048544,-2384,-16432,3740,3,A
1781599048565,-1708,-18820,3840,3,A
1781599048587,-532,-20264,3284,3,A
1781599048609,448,-18908,2352,3,A
1781599048631,-1176,-16512,3192,3,A
1781599048652,-2236,-15036,3720,3,A
1781599048673,-2056,-14440,3432,3,A
1781599048695,-516,-14204,2108,3,A
1781599048717,-140,-15356,2040,3,A
1781599048738,48,-16420,1780,3,A
1781599048759,-124,-16248,1280,3,A
1781599048782,-1480,-15648,1848,3,A
1781599048803,-3060,-15292,2780,3,A
1781599048825,-3980,-15568,3524,3,A
1781599048847,-3172,-16128,3288,3,A
1781599048869,-2548,-16524,3264,3,A
1781599048890,-1796,-16860,3264,3,A
1781599048912,-2000,-17320,4172,3,A
1781599048932,-1564,-17056,4188,3,A
1781599048954,-712,-16840,3668,3,A
1781599048976,-1968,-16352,4548,3,A
1781599048998,-1496,-15872,3764,3,A
1781599049020,-1288,-14784,2956,3,A
1781599049040,-956,-15752,2188,3,A
1781599049063,-1100,-17800,1616,3,A
1781599049084,-72,-21988,624,3,A
1781599049106,2600,-23652,-2068,3,A
1781599049127,-908,-18940,-424,3,A
1781599049149,-4700,-14188,2376,3,A
1781599049171,-4892,-10636,2712,3,A
1781599049192,-1264,-11088,416,3,A
1781599049214,2048,-12200,-1432,3,A
1781599049235,1564,-13960,-16,3,A
1781599049257,616,-15212,1220,3,A
1781599049279,-196,-17108,1920,3,A
1781599049300,376,-19140,1736,3,A
1781599049322,676,-20096,1896,3,A
1781599049344,484,-19032,2204,3,A
1781599049365,-16,-17712,2200,3,A
1781599049386,204,-15080,1292,3,A
1781599049408,360,-13612,728,3,A
1781599049429,296,-12908,652,3,A
1781599049451,-484,-13304,1484,3,A
1781599049473,-368,-15472,2148,3,A
1781599049495,1188,-16876,1512,3,A
1781599049516,1128,-17640,2292,3,A
1781599049538,772,-17300,2920,3,A
1781599049559,-88,-16420,3692,3,A
1781599049581,-48,-15784,3584,3,A
1781599049602,636,-15916,3104,3,A
1781599049625,1656,-16444,2112,3,A
1781599049645,1772,-16972,2108,3,A
1781599049667,1720,-17104,1980,3,A
1781599049689,1172,-16000,2028,3,A
1781599049710,1236,-16784,1052,3,A
1781599049732,2444,-19472,-1124,3,A
1781599049753,5108,-19876,-4312,3,A
1781599049775,1892,-16608,-2088,3,A
1781599049796,-1496,-13892,116,3,A
1781599049818,-2972,-12368,1668,3,A
1781599049840,-1560,-13688,816,3,A
1781599049861,824,-16288,-972,3,A
1781599049884,2548,-16696,-2600,3,A
1781599049904,1304,-16072,-2096,3,A
1781599049927,620,-16528,-1576,3,A
1781599049949,-512,-18208,128,3,A
1781599049970,-20,-18428,-64,3,A
1781599049991,48,-17292,-216,3,A
1781599050013,1044,-16416,-992,3,A
1781599050035,1128,-15476,-644,3,A
1781599050056,308,-14972,-12,3,A
1781599050078,-552,-15928,624,3,A
1781599050099,-316,-16880,156,3,A
1781599050121,88,-17512,-308,3,A
1781599050142,212,-17160,-644,3,A
1781599050164,8,-15800,-900,3,A
1781599050185,-376,-14956,-508,3,A
1781599050207,-596,-14844,-104,3,A
1781599050229,168,-14768,-756,3,A
1781599050250,696,-16088,-1264,3,A
1781599050272,552,-15008,-1440,3,A
1781599050294,-792,-16008,-832,3,A
1781599050315,444,-16120,-2048,3,A
1781599050336,-812,-16104,-884,3,A
1781599050358,-440,-15464,-1324,3,A
1781599050380,-1308,-15984,-300,3,A
1781599050401,-40,-16452,-88,3,A
1781599050423,556,-16340,1008,3,A
1781599050444,-692,-16928,3824,3,A
1781599050466,-392,-18232,5356,3,A
1781599050488,1392,-21824,5844,3,A
1781599050509,5920,-24912,3052,3,A
1781599050531,7968,-23836,796,3,A
1781599050554,3360,-17772,1912,3,A
1781599050575,-1460,-13684,3716,3,A
1781599050596,-3724,-10412,4420,3,A
1781599050618,-3896,-9156,3740,3,A
1781599050640,-2976,-10424,3308,3,A
1781599050661,-684,-12688,2716,3,A
1781599050682,48,-15240,3852,3,A
1781599050703,948,-18224,4060,3,A
1781599050725,3148,-20644,3136,3,A
1781599050747,3080,-19752,2428,3,A
1781599050768,160,-16652,3484,3,A
1781599050790,-424,-15328,2724,3,A
1781599050812,228,-14228,2028,3,A
1781599050833,-472,-15104,2120,3,A
1781599050855,1360,-14116,764,3,A
1781599050877,1992,-14688,1236,3,A
1781599050898,2316,-14656,1404,3,A
1781599050920,2112,-15480,1192,3,A
1781599050941,2012,-15228,920,3,A
1781599050963,1644,-14556,708,3,A
1781599050985,268,-13600,1620,3,A
1781599051006,324,-14020,1512,3,A
1781599051028,696,-17100,1548,3,A
1781599051049,1948,-19460,628,3,A
1781599051071,2316,-19928,236,3,A
1781599051093,284,-18836,132,3,A
1781599051115,-1652,-20708,-140,3,A
1781599051136,-3700,-21368,676,3,A
1781599051157,-8108,-17220,4192,3,A
1781599051179,-9376,-10384,6200,3,A
1781599051200,-6640,-10164,5492,3,A
1781599051222,-3016,-13608,4716,3,A
1781599051244,276,-16160,4668,3,A
1781599051265,2192,-18828,4856,3,A
1781599051287,3248,-20244,3960,3,A
1781599051308,2912,-18940,2500,3,A
1781599051330,-1696,-16256,4424,3,A
1781599051352,-3816,-15668,4488,3,A
1781599051374,-2892,-15052,2908,3,A
1781599051395,-704,-14948,1704,3,A
1781599051416,-784,-15128,2540,3,A
1781599051438,-632,-14840,2916,3,A
1781599051460,-884,-15416,3888,3,A
1781599051481,-960,-15800,4376,3,A
1781599051503,-572,-16672,3756,3,A
1781599051525,-500,-17036,3400,3,A
1781599051546,-1324,-16484,3736,3,A
1781599051568,-1692,-16256,3780,3,A
1781599051589,-2176,-16780,3452,3,A
1781599051611,-1372,-16980,2284,3,A
1781599051633,-1120,-17544,2156,3,A
1781599051654,-648,-18532,1524,3,A
1781599051676,-872,-19952,1420,3,A
1781599051697,-212,-19736,880,3,A
1781599051720,-1296,-17196,2368,3,A
1781599051741,-844,-14980,2240,3,A
1781599051762,1004,-14240,984,3,A
1781599051784,2492,-13780,-524,3,A
1781599051805,3080,-13264,-1104,3,A
1781599051827,3052,-13532,-1108,3,A
1781599051848,1888,-14408,-16,3,A
1781599051870,-112,-15804,2004,3,A
1781599051893,244,-16692,1624,3,A
1781599051914,48,-18140,2580,3,A
1781599051935,20,-19316,2908,3,A
1781599051957,512,-18676,2552,3,A
1781599051978,540,-16908,2336,3,A
1781599052000,-160,-13296,2076,3,A
1781599052021,16,-12208,1960,3,A
1781599052043,336,-12840,2008,3,A
1781599052064,280,-15080,2700,3,A
1781599052086,832,-16896,2696,3,A
1781599052108,792,-17768,2904,3,A
1781599052129,284,-16896,3156,3,A
1781599052151,-152,-15820,3424,3,A
1781599052172,-152,-15384,3532,3,A
1781599052194,732,-16096,3296,3,A
1781599052216,1268,-16908,2952,3,A
1781599052237,1424,-17288,2184,3,A
1781599052258,760,-16688,1996,3,A
1781599052281,-388,-15752,2248,3,A
1781599052302,400,-18416,1120,3,A
1781599052324,4524,-21476,-2396,3,A
1781599052345,5512,-20696,-3728,3,A
1781599052367,684,-16216,-176,3,A
1781599052388,-1964,-12036,1108,3,A
1781599052410,-2844,-10920,2020,3,A
1781599052432,-1368,-13064,940,3,A
1781599052453,980,-15336,-1048,3,A
1781599052475,1340,-17768,-1128,3,A
1781599052497,2336,-18628,-1432,3,A
1781599052517,1492,-18876,180,3,A
1781599052539,24,-16936,1208,3,A
1781599052561,-1104,-16524,1116,3,A
1781599052583,-156,-16264,-372,3,A
1781599052605,-16,-15688,-368,3,A
1781599052626,184,-14688,-148,3,A
1781599052647,320,-14760,332,3,A
1781599052669,244,-15440,756,3,A
1781599052690,364,-16912,568,3,A
1781599052712,632,-17884,-44,3,A
1781599052733,280,-17060,-340,3,A
1781599052755,-472,-16672,-128,3,A
1781599052778,-180,-16392,-188,3,A
1781599052798,668,-16536,-660,3,A
1781599052820,932,-15992,-580,3,A
1781599052842,372,-15376,80,3,A
1781599052863,168,-16124,392,3,A
1781599052885,264,-17292,524,3,A
1781599052906,428,-17008,496,3,A
1781599052928,580,-15844,-232,3,A
1781599052949,272,-15460,-24,3,A
1781599052971,132,-15020,-180,3,A
1781599052993,-56,-15396,-184,3,A
1781599053014,320,-15740,-544,3,A
1781599053036,764,-15604,-744,3,A
1781599053057,84,-14728,-104,3,A
1781599053079,-60,-15104,-392,3,A
1781599053101,656,-15916,-1112,3,A
1781599053122,1116,-16932,-1276,3,A
1781599053143,568,-18264,40,3,A
1781599053165,308,-19320,2676,3,A
1781599053187,1436,-21272,4268,3,A
1781599053209,4232,-21528,3996,3,A
1781599053230,5280,-21100,1836,3,A
1781599053252,1332,-16388,2808,3,A
1781599053274,-3272,-14740,5168,3,A
1781599053296,-2884,-12976,3728,3,A
1781599053316,-3236,-13236,3632,3,A
1781599053339,-2820,-13388,3336,3,A
1781599053361,-1896,-13604,3416,3,A
1781599053381,-276,-15080,3304,3,A
1781599053404,1412,-16596,2880,3,A
1781599053425,1164,-17528,3352,3,A
1781599053447,-280,-17540,3796,3,A
1781599053468,-748,-18116,3656,3,A
1781599053489,120,-16420,2244,3,A
1781599053511,28,-15320,2136,3,A
1781599053532,-156,-14868,2368,3,A
1781599053555,-248,-14988,2580,3,A
1781599053577,288,-14600,2084,3,A
1781599053599,924,-14604,1684,3,A
1781599053620,1396,-15008,1244,3,A
1781599053642,1604,-14908,756,3,A
1781599053663,880,-14736,1140,3,A
1781599053685,452,-14724,976,3,A
1781599053706,12,-14740,1028,3,A
1781599053728,-1552,-16244,2172,3,A
1781599053751,-1308,-19220,1724,3,A
1781599053771,-456,-24052,-212,3,A
1781599053793,-404,-27552,160,3,A
1781599053814,-4388,-20052,4288,3,A
1781599053836,-6352,-9240,5544,3,A
1781599053858,-5432,-5220,5092,3,A
1781599053879,-3044,-8192,4664,3,A
1781599053901,-1036,-15364,5032,3,A
1781599053923,68,-19288,5408,3,A
1781599053945,2120,-23120,4380,3,A
1781599053966,3564,-23728,2496,3,A
1781599053988,-536,-17124,3564,3,A
1781599054009,-4584,-13520,4708,3,A
1781599054031,-5152,-12092,4272,3,A
1781599054052,-2856,-12204,2256,3,A
1781599054075,-1364,-14372,2084,3,A
1781599054096,-1576,-15660,3384,3,A
1781599054117,-2012,-16456,4168,3,A
1781599054140,-2368,-16556,4608,3,A
1781599054161,-1288,-15900,3584,3,A
1781599054183,-1400,-15408,3824,3,A
1781599054204,-1596,-14968,4060,3,A
1781599054225,-1668,-15252,4112,3,A
1781599054247,-2092,-15620,4288,3,A
1781599054269,-2748,-16292,4572,3,A
1781599054290,-2780,-16280,4072,3,A
1781599054312,-2440,-16776,3644,3,A
1781599054333,-2484,-16648,3696,3,A
1781599054356,-2436,-15884,3712,3,A
1781599054377,-1844,-16708,4060,3,A
1781599054398,-280,-17256,3172,3,A
1781599054420,968,-18264,1676,3,A
1781599054441,1164,-18980,700,3,A
1781599054463,672,-20048,140,3,A
1781599054485,-1768,-17636,1820,3,A
1781599054506,-3288,-15788,2680,3,A
1781599054527,-3040,-14516,2752,3,A
1781599054549,-144,-14980,652,3,A
1781599054571,2428,-14528,-924,3,A
1781599054592,2560,-13640,-824,3,A
1781599054614,1748,-13112,-188,3,A
1781599054635,576,-14896,1512,3,A
1781599054657,988,-16952,1640,3,A
1781599054678,836,-18900,2388,3,A
1781599054700,300,-19572,2828,3,A
1781599054722,300,-18304,2536,3,A
1781599054743,432,-16168,1884,3,A
1781599054765,512,-13872,1360,3,A
1781599054786,-20,-12912,1536,3,A
1781599054807,52,-12888,1184,3,A
1781599054829,-452,-14748,1956,3,A
1781599054851,-112,-16756,2396,3,A
1781599054873,428,-17564,2528,3,A
1781599054895,500,-18288,3140,3,A
1781599054915,1004,-17128,2764,3,A
1781599054938,196,-15704,3372,3,A
1781599054960,208,-15004,3264,3,A
1781599054980,484,-15584,3148,3,A
1781599055003,1108,-15972,2528,3,A
1781599055024,1004,-16548,2764,3,A
1781599055046,724,-16996,3136,3,A
1781599055067,984,-16980,2528,3,A
1781599055089,-116,-16348,2476,3,A
1781599055110,-96,-17548,1340,3,A
1781599055132,2584,-19512,-1604,3,A
1781599055153,3128,-18104,-2716,3,A
1781599055175,272,-16364,-676,3,A
1781599055196,-1480,-14420,780,3,A
1781599055219,-1320,-14060,664,3,A
1781599055239,-668,-13992,184,3,A
1781599055261,568,-14256,-872,3,A
1781599055283,740,-15564,-792,3,A
1781599055304,520,-16424,-340,3,A
1781599055326,424,-17532,436,3,A
1781599055348,-104,-18532,1000,3,A
1781599055369,-716,-18236,1176,3,A
1781599055391,-552,-17872,420,3,A
1781599055412,84,-16164,-232,3,A
1781599055434,160,-14900,8,3,A
1781599055455,364,-14452,352,3,A
1781599055477,332,-14600,700,3,A
1781599055498,824,-15640,364,3,A
1781599055520,796,-16788,-332,3,A
1781599055542,376,-16928,-1068,3,A
1781599055564,-412,-18148,-1336,3,A
1781599055585,496,-18540,-2952,3,A
1781599055607,-1468,-17416,-2008,3,A
1781599055628,-3484,-15604,648,3,A
1781599055650,-3788,-12668,1744,3,A
1781599055672,-1452,-14812,1364,3,A
1781599055693,1748,-17764,428,3,A
1781599055714,2044,-19044,400,3,A
1781599055736,2324,-18216,-372,3,A
1781599055758,700,-16632,-156,3,A
1781599055779,-524,-15384,-88,3,A
1781599055800,-1332,-14916,-444,3,A
1781599055822,-792,-15776,-1128,3,A
1781599055844,-1164,-16568,-476,3,A
1781599055866,-1392,-16444,124,3,A
1781599055887,-500,-16444,32,3,A
1781599055909,-360,-16300,80,3,A
1781599055931,180,-15772,-520,3,A
1781599055952,364,-15820,-1204,3,A
1781599055973,-772,-15324,-808,3,A
1781599055996,-632,-15000,-1256,3,A
1781599056017,-180,-14436,-1548,3,A
1781599056039,-92,-15488,-1004,3,A
1781599056061,-288,-14636,276,3,A
1781599056082,1176,-16464,-788,3,A
1781599056103,3216,-20876,-1572,3,A
1781599056124,628,-18368,2236,3,A
1781599056147,-2996,-20804,5384,3,A
1781599056168,1404,-22956,3984,3,A
1781599056189,6288,-22684,404,3,A
1781599056210,3352,-16732,1732,3,A
1781599056233,84,-12656,3024,3,A
1781599056254,-1612,-10560,4476,3,A
1781599056276,-1640,-11224,4704,3,A
1781599056298,-1212,-13816,4496,3,A
1781599056319,192,-16872,3336,3,A
1781599056341,1068,-18084,3024,3,A
1781599056362,316,-18772,3720,3,A
1781599056384,-472,-17192,4052,3,A
1781599056406,-1192,-16276,4100,3,A
1781599056427,-688,-16688,3380,3,A
1781599056449,884,-16768,1964,3,A
1781599056470,1268,-15628,1964,3,A
1781599056492,304,-15188,3216,3,A
1781599056514,1032,-13364,2648,3,A
1781599056535,1840,-14048,2136,3,A
1781599056557,1644,-15076,2388,3,A
1781599056579,720,-15916,2928,3,A
1781599056599,1348,-16396,1828,3,A
1781599056621,1908,-16404,520,3,A
1781599056643,1224,-15420,588,3,A
1781599056665,832,-14112,788,3,A
1781599056685,1376,-13656,240,3,A
1781599056707,1776,-16056,-592,3,A
1781599056729,1056,-22424,-888,3,A
1781599056751,2196,-25548,-1620,3,A
1781599056772,-980,-18496,776,3,A
1781599056794,-6620,-10852,5536,3,A
1781599056816,-8040,-7836,6868,3,A
1781599056837,-6876,-8712,6032,3,A
1781599056859,-6324,-12836,5868,3,A
1781599056880,-4496,-17948,4716,3,A
1781599056902,88,-23888,1540,3,A
1781599056924,4604,-25316,-620,3,A
1781599056945,3136,-20596,1252,3,A
1781599056967,-1904,-15400,5224,3,A
1781599056989,-2928,-12660,5608,3,A
1781599057010,-2016,-11872,4660,3,A
1781599057032,-792,-13536,3320,3,A
1781599057054,-1072,-15320,3340,3,A
1781599057076,-1892,-16148,3648,3,A
1781599057098,-2056,-17108,3196,3,A
1781599057119,-1784,-17548,2808,3,A
1781599057140,-880,-15984,2532,3,A
1781599057162,-1904,-14896,3672,3,A
1781599057183,-2084,-14972,4320,3,A
1781599057205,-1924,-16288,4596,3,A
1781599057227,-996,-15592,3980,3,A
1781599057249,-1684,-16004,4360,3,A
1781599057270,-1884,-15744,3840,3,A
1781599057292,-2976,-16408,4228,3,A
1781599057314,-2984,-17516,4420,3,A
1781599057335,-1884,-17768,3340,3,A
1781599057357,-660,-17836,1796,3,A
1781599057378,-1108,-19348,1540,3,A
1781599057401,-1016,-19692,1140,3,A
1781599057421,300,-16672,-44,3,A
1781599057444,-1792,-15040,1068,3,A
1781599057465,-2464,-16836,1752,3,A
1781599057487,-1440,-17852,1024,3,A
1781599057508,216,-16876,212,3,A
1781599057530,1096,-14496,-528,3,A
1781599057551,520,-12748,732,3,A
1781599057573,1052,-11600,1020,3,A
1781599057594,856,-12308,1996,3,A
1781599057616,540,-15704,3116,3,A
1781599057638,940,-17844,2832,3,A
1781599057659,772,-20040,2624,3,A
1781599057681,376,-19500,2228,3,A
1781599057703,208,-16560,1676,3,A
1781599057724,-1036,-14064,2180,3,A
1781599057745,-892,-12472,1588,3,A
1781599057768,-1332,-12672,2076,3,A
1781599057789,-1760,-14768,2784,3,A
1781599057811,-1152,-16772,2552,3,A
1781599057832,-548,-18068,2768,3,A
1781599057854,-820,-17008,3612,3,A
1781599057875,-1684,-15740,4812,3,A
1781599057897,-1076,-15848,4584,3,A
1781599057919,-148,-17076,3744,3,A
1781599057940,260,-17328,3096,3,A
1781599057962,-992,-16548,3636,3,A
1781599057984,-1092,-16084,2992,3,A
1781599058005,-1044,-15168,2148,3,A
1781599058027,-1036,-16472,900,3,A
1781599058049,1672,-19580,-2556,3,A
1781599058071,3796,-20712,-4524,3,A
1781599058092,-140,-16016,-2304,3,A
1781599058113,-3236,-12852,20,3,A
1781599058135,-5084,-11256,1296,3,A
1781599058156,-4076,-12944,1208,3,A
1781599058178,-1128,-15420,-640,3,A
1781599058200,84,-17096,-1160,3,A
1781599058221,1004,-18820,-992,3,A
1781599058243,2396,-19168,-1152,3,A
1781599058265,168,-18200,952,3,A
1781599058285,-308,-17280,672,3,A
1781599058307,484,-16840,-828,3,A
1781599058329,708,-15864,-1396,3,A
1781599058350,444,-14684,-1204,3,A
1781599058372,-80,-14880,-872,3,A
1781599058394,-156,-15428,-744,3,A
1781599058415,-556,-16364,-396,3,A
1781599058437,-768,-17328,-20,3,A
1781599058458,-32,-17280,-744,3,A
1781599058480,-260,-16968,-772,3,A
1781599058502,-1388,-16304,-444,3,A
1781599058524,-1416,-16772,-1000,3,A
1781599058545,-1228,-16468,-1504,3,A
1781599058567,-1528,-15012,-1400,3,A
1781599058588,-1080,-14796,-1584,3,A
1781599058610,-488,-15700,-1612,3,A
1781599058632,-116,-16008,-1276,3,A
1781599058653,-128,-15056,-504,3,A
1781599058674,-292,-14504,-688,3,A
1781599058696,160,-15188,-1064,3,A
1781599058717,8,-14916,-756,3,A
1781599058739,72,-15108,-348,3,A
1781599058760,612,-16536,-8,3,A
1781599058782,232,-18652,1136,3,A
1781599058804,428,-20004,1384,3,A
1781599058825,164,-20264,2000,3,A
1781599058848,192,-21260,2376,3,A
1781599058868,2748,-20348,620,3,A
1781599058891,1100,-20160,832,3,A
1781599058911,-2076,-15944,2596,3,A
1781599058934,-3368,-14496,3280,3,A
1781599058955,-3324,-13308,3244,3,A
1781599058977,-572,-14616,1792,3,A
1781599058998,1472,-14408,1324,3,A
1781599059019,1368,-14448,1768,3,A
1781599059041,1260,-14576,1944,3,A
1781599059063,340,-15484,2672,3,A
1781599059085,-864,-16844,3144,3,A
1781599059106,-1556,-17616,3052,3,A
1781599059128,-692,-18120,1600,3,A
1781599059149,232,-17404,808,3,A
1781599059171,-44,-15972,1088,3,A
1781599059193,-380,-15040,1648,3,A
1781599059215,-128,-14784,1504,3,A
1781599059236,988,-15292,1032,3,A
1781599059257,1676,-16808,800,3,A
1781599059281,1532,-16608,1528,3,A
1781599059302,2000,-14984,612,3,A
1781599059323,2096,-14104,192,3,A
1781599059345,1588,-15100,412,3,A
1781599059367,808,-15036,-364,3,A
1781599059389,-16,-17516,-1048,3,A
1781599059411,-320,-21944,-2024,3,A
1781599059432,2044,-23328,-5320,3,A
1781599059454,-1720,-17268,-276,3,A
1781599059475,-5464,-10808,3252,3,A
1781599059496,-6936,-8360,5680,3,A
1781599059518,-6796,-10136,6776,3,A
1781599059540,-4496,-14848,6044,3,A
1781599059562,-708,-19548,3484,3,A
1781599059584,1672,-23924,1460,3,A
1781599059605,2372,-22084,792,3,A
1781599059627,-1464,-16708,2632,3,A
1781599059648,-2748,-12784,2536,3,A
1781599059670,-2276,-12340,2608,3,A
1781599059691,-572,-14160,1428,3,A
1781599059713,4,-16228,1708,3,A
1781599059734,-660,-16608,2052,3,A
1781599059756,-2760,-15608,3540,3,A
1781599059778,-3756,-15656,3960,3,A
1781599059799,-2568,-16324,3212,3,A
1781599059821,-1516,-16724,2324,3,A
1781599059844,-1664,-16460,2868,3,A
1781599059864,-2596,-15936,3888,3,A
1781599059886,-3040,-15948,4248,3,A
1781599059908,-3480,-16444,4016,3,A
1781599059929,-3148,-16864,3452,3,A
1781599059951,-3336,-17180,3492,3,A
1781599059973,-2256,-17892,2596,3,A
1781599059994,-4,-18760,1068,3,A
1781599060017,1460,-18716,-360,3,A
1781599060037,836,-17176,-40,3,A
1781599060059,-1960,-17704,796,3,A
1781599060080,-3304,-18312,1240,3,A
1781599060103,-1328,-17744,-664,3,A
1781599060125,280,-16132,-2000,3,A
1781599060146,380,-14740,-1348,3,A
1781599060167,660,-12212,-820,3,A
1781599060188,-240,-11364,960,3,A
1781599060210,-528,-12984,2116,3,A
1781599060232,280,-16232,1780,3,A
1781599060252,396,-18308,1876,3,A
1781599060275,-264,-20420,2576,3,A
1781599060296,288,-21020,1836,3,A
1781599060318,136,-17856,1276,3,A
1781599060340,-684,-15108,1640,3,A
1781599060362,-920,-12140,1268,3,A
1781599060383,-1324,-11876,1496,3,A
1781599060405,-580,-14128,960,3,A
1781599060427,-676,-16652,1424,3,A
1781599060448,-664,-17964,2204,3,A
1781599060470,4,-18136,2208,3,A
1781599060491,124,-17072,2800,3,A
1781599060513,64,-15792,3192,3,A
1781599060535,-192,-15220,3208,3,A
1781599060555,612,-15884,2132,3,A
1781599060577,32,-15800,2192,3,A
1781599060599,-1308,-15300,2844,3,A
1781599060620,-2760,-15504,3688,3,A
1781599060642,-2536,-16120,3128,3,A
1781599060664,-888,-16832,1024,3,A
1781599060686,1388,-19488,-948,3,A
1781599060707,4684,-21884,-4236,3,A
1781599060729,4400,-18608,-3940,3,A
1781599060750,88,-13704,-1316,3,A
1781599060773,-3240,-11416,1592,3,A
1781599060794,-3492,-12980,2248,3,A
1781599060815,-644,-15476,36,3,A
1781599060837,1572,-17468,-1712,3,A
1781599060858,3136,-17460,-2868,3,A
1781599060880,2084,-17432,-1928,3,A
1781599060902,192,-17200,-408,3,A
1781599060924,-204,-16300,-384,3,A
1781599060945,-180,-16304,-684,3,A
1781599060966,280,-15820,-960,3,A
1781599060988,1136,-15184,-1680,3,A
1781599061009,776,-15132,-1292,3,A
1781599061031,280,-15888,-916,3,A
1781599061054,-476,-16768,-404,3,A
1781599061075,-800,-16964,-360,3,A
1781599061096,-1200,-17048,-292,3,A
1781599061117,-1132,-16920,-860,3,A
1781599061140,-1072,-16636,-1076,3,A
1781599061161,-616,-16760,-1664,3,A
1781599061183,-692,-15860,-1684,3,A
1781599061204,-504,-15212,-1256,3,A
1781599061226,-740,-14676,-352,3,A
1781599061248,-356,-14628,-724,3,A
1781599061269,308,-15056,-1276,3,A
1781599061291,524,-15324,-1452,3,A
1781599061312,-384,-17192,-300,3,A
1781599061334,536,-17524,-740,3,A
1781599061356,1372,-16092,-292,3,A
1781599061377,1260,-14568,1996,3,A
1781599061400,-232,-17040,4904,3,A
1781599061420,72,-21012,6268,3,A
1781599061442,4664,-25512,3544,3,A
1781599061464,7088,-23140,-1024,3,A
1781599061485,-456,-17304,1944,3,A
1781599061507,-4080,-12896,2616,3,A
1781599061528,-5396,-12072,2392,3,A
1781599061550,-5644,-11972,2916,3,A
1781599061572,-4056,-13124,2492,3,A
1781599061593,-1172,-14260,1592,3,A
1781599061615,-100,-16120,2696,3,A
1781599061637,-92,-17116,4296,3,A
1781599061658,68,-18004,4408,3,A
1781599061680,960,-19024,2588,3,A
1781599061701,184,-17940,2120,3,A
1781599061723,-1148,-16112,1988,3,A
1781599061744,-1164,-14576,1396,3,A
1781599061766,-1428,-14032,1816,3,A
1781599061787,-144,-14484,1228,3,A
1781599061809,684,-14940,1324,3,A
1781599061831,632,-15400,1796,3,A
1781599061853,1596,-15676,936,3,A
1781599061874,2160,-16312,412,3,A
1781599061895,2872,-15928,-12,3,A
1781599061916,1616,-16264,-4,3,A
1781599061938,388,-17620,28,3,A
1781599061960,-572,-17964,-276,3,A
1781599061982,-1836,-16152,-28,3,A
1781599062004,-5780,-18796,2316,3,A
1781599062025,-3756,-20080,920,3,A
1781599062047,-3688,-16884,2556,3,A
1781599062069,-4744,-12024,4432,3,A
1781599062090,-4508,-10124,5208,3,A
1781599062112,-3092,-12464,4648,3,A
1781599062133,-3140,-15680,4500,3,A
1781599062156,-2816,-17728,3972,3,A
1781599062177,-2004,-19784,3256,3,A
1781599062198,-1372,-19604,2460,3,A
1781599062220,-1940,-17080,2904,3,A
1781599062242,-2064,-15324,3284,3,A
1781599062264,-1508,-14796,3088,3,A
1781599062285,-1680,-15520,3616,3,A
1781599062306,-628,-16216,2492,3,A
1781599062329,-1188,-16456,2452,3,A
1781599062349,-2880,-16152,3196,3,A
1781599062372,-4600,-15680,4188,3,A
1781599062393,-4844,-15736,4128,3,A
1781599062415,-3736,-15872,3584,3,A
1781599062436,-2696,-16032,2980,3,A
1781599062458,-2276,-15892,3116,3,A
1781599062480,-1928,-15596,3120,3,A
1781599062502,-2940,-15688,3500,3,A
1781599062523,-2536,-17184,2276,3,A
1781599062545,-1200,-18904,-20,3,A
1781599062566,1100,-19668,-2488,3,A
1781599062588,-1824,-15368,-800,3,A
1781599062609,-5804,-12348,2212,3,A
1781599062631,-7116,-11788,4328,3,A
1781599062653,-5364,-14184,4084,3,A
1781599062675,-2032,-17252,2440,3,A
1781599062695,904,-18128,780,3,A
1781599062717,2432,-17640,-548,3,A
1781599062740,1780,-17164,-508,3,A
1781599062760,0,-16332,636,3,A
1781599062782,-1248,-16396,1656,3,A
1781599062804,-500,-16048,1640,3,A
1781599062826,328,-14828,1396,3,A
1781599062847,584,-14692,1944,3,A
1781599062869,368,-15680,3208,3,A
1781599062890,824,-16844,2832,3,A
1781599062912,-328,-18660,3416,3,A
1781599062934,-1128,-18028,3000,3,A
1781599062955,-2448,-17132,2764,3,A
1781599062976,-2396,-15308,1644,3,A
1781599062998,-1468,-13828,1096,3,A
1781599063020,-2408,-13464,2612,3,A
1781599063042,-3012,-14740,4424,3,A
1781599063064,-856,-16472,3816,3,A
1781599063085,668,-16684,3388,3,A
1781599063107,516,-16136,4024,3,A
1781599063128,640,-15552,3592,3,A
1781599063150,236,-15500,3256,3,A
1781599063171,-1000,-15744,3828,3,A
1781599063193,-1976,-16472,3792,3,A
1781599063215,-268,-18200,1664,3,A
1781599063235,492,-17492,460,3,A
1781599063258,-1412,-18008,1392,3,A
1781599063279,-1056,-19868,748,3,A
1781599063301,156,-20088,-1080,3,A
1781599063322,400,-18384,-1508,3,A
1781599063344,-972,-15932,-544,3,A
1781599063366,-2012,-14104,-128,3,A
1781599063387,-1840,-13500,-960,3,A
1781599063409,-1624,-13844,-988,3,A
1781599063431,-2004,-14148,-864,3,A
1781599063452,-2864,-14884,56,3,A
1781599063474,-2344,-16392,516,3,A
1781599063496,-1600,-18108,796,3,A
1781599063517,-796,-19764,732,3,A
1781599063538,-40,-19264,200,3,A
1781599063560,-624,-17316,-184,3,A
1781599063582,-1864,-15840,108,3,A
1781599063603,-2904,-15160,360,3,A
1781599063625,-3280,-14948,372,3,A
1781599063647,-2620,-15536,144,3,A
1781599063669,-2184,-15720,256,3,A
1781599063690,-1784,-15648,536,3,A
1781599063712,-1448,-16000,336,3,A
1781599063733,-1100,-16496,296,3,A
1781599063755,-248,-17040,-1072,3,A
1781599063777,408,-17596,-1748,3,A
1781599063799,-928,-16540,-944,3,A
1781599063820,-1880,-15448,80,3,A
1781599063841,-1836,-14960,408,3,A
1781599063863,-1964,-14992,872,3,A
1781599063884,-1976,-16136,1036,3,A
1781599063906,-1108,-17516,424,3,A
1781599063928,-636,-16968,-4,3,A
1781599063949,-364,-15424,-256,3,A
1781599063971,12,-15052,-244,3,A
1781599063993,-312,-14712,916,3,A
1781599064015,-1084,-14728,2016,3,A
1781599064036,-876,-17100,2588,3,A
1781599064057,-220,-18488,1916,3,A
1781599064079,-852,-19424,1428,3,A
1781599064101,-1560,-18868,880,3,A
1781599064122,-2600,-16584,980,3,A
1781599064144,-3632,-14580,1544,3,A
1781599064166,-3140,-13996,1564,3,A
1781599064187,-1600,-14704,1164,3,A
1781599064209,-84,-15624,736,3,A
1781599064230,224,-16512,1288,3,A
1781599064252,628,-16960,1644,3,A
1781599064273,696,-17260,860,3,A
1781599064294,228,-16800,1092,3,A
1781599064316,756,-15588,348,3,A
1781599064338,-828,-15948,1156,3,A
1781599064359,1740,-15200,-584,3,A
1781599064381,2264,-14788,-560,3,A
1781599064402,1000,-14500,144,3,A
1781599064424,-692,-15612,408,3,A
1781599064445,268,-18924,-404,3,A
1781599064467,1328,-20340,-2904,3,A
1781599064488,152,-20772,-2132,3,A
1781599064510,-6088,-15632,2888,3,A
1781599064532,-9560,-11756,5880,3,A
1781599064553,-9076,-10660,6108,3,A
1781599064576,-4212,-14340,2832,3,A
1781599064597,-1740,-18060,2156,3,A
1781599064618,352,-20320,1784,3,A
1781599064640,3184,-21020,1492,3,A
1781599064661,3596,-19652,2064,3,A
1781599064683,1664,-16312,2804,3,A
1781599064705,-476,-14616,2220,3,A
1781599064726,-1140,-14524,828,3,A
1781599064748,-1124,-14424,-36,3,A
1781599064770,-2452,-14292,232,3,A
1781599064791,-2764,-15348,904,3,A
1781599064813,-2844,-16280,1592,3,A
1781599064834,-1736,-16292,1220,3,A
1781599064856,-884,-15928,1084,3,A
1781599064877,908,-15340,-288,3,A
1781599064899,1132,-15508,112,3,A
1781599064921,1080,-15412,-1072,3,A
1781599064942,928,-14928,-1060,3,A
1781599064964,-920,-14180,-600,3,A
1781599064987,-1944,-13880,-60,3,A
1781599065009,-2380,-16700,680,3,A
1781599065030,-1256,-20064,884,3,A
1781599065052,-1796,-26672,3352,3,A
1781599065074,3136,-21684,964,3,A
1781599065095,3692,-17340,2244,3,A
1781599065116,1600,-13272,4608,3,A
1781599065138,-1640,-11108,6616,3,A
1781599065160,-4160,-11576,7016,3,A
1781599065181,-1988,-15532,3724,3,A
1781599065203,-1168,-17816,2320,3,A
1781599065225,-1144,-19104,964,3,A
1781599065247,-3112,-18024,1556,3,A
1781599065268,-4392,-15252,3284,3,A
1781599065290,-2836,-14732,3100,3,A
1781599065311,-1224,-15348,2380,3,A
1781599065333,-1356,-16484,3408,3,A
1781599065354,-840,-17000,3800,3,A
1781599065376,-556,-19164,4504,3,A
1781599065398,-388,-16572,3976,3,A
1781599065420,336,-15864,2932,3,A
1781599065441,480,-15588,2468,3,A
1781599065462,492,-14920,1936,3,A
1781599065484,928,-15036,1380,3,A
1781599065505,1248,-15092,1628,3,A
1781599065527,952,-16044,1216,3,A
1781599065549,-224,-19144,412,3,A
1781599065571,3628,-24368,-3180,3,A
1781599065592,5084,-19772,-4096,3,A
1781599065614,-2452,-13688,1368,3,A
1781599065636,-6988,-9316,4880,3,A
1781599065657,-6736,-8968,3800,3,A
1781599065678,-4712,-10336,1160,3,A
1781599065700,-4784,-12884,1152,3,A
1781599065722,-5208,-17256,1780,3,A
1781599065743,-7160,-20300,4164,3,A
1781599065765,-5176,-21920,3260,3,A
1781599065787,-1972,-19524,1836,3,A
1781599065808,-3352,-16468,3464,3,A
1781599065830,-3348,-15160,3956,3,A
1781599065851,-820,-14992,2188,3,A
1781599065873,200,-14620,1500,3,A
1781599065895,-968,-14120,2556,3,A
1781599065917,-2904,-14816,3872,3,A
1781599065938,-2500,-16184,3488,3,A
1781599065960,-816,-16600,2000,3,A
1781599065981,-780,-16104,1400,3,A
1781599066003,-2284,-15588,2324,3,A
1781599066025,-3880,-15660,3512,3,A
1781599066047,-4524,-15400,3684,3,A
1781599066069,-3940,-15468,3192,3,A
1781599066090,-3964,-18224,3168,3,A
1781599066112,-5032,-16368,4184,3,A
1781599066133,-5656,-16452,4532,3,A
1781599066155,-5292,-16772,3948,3,A
1781599066176,-4940,-17792,3584,3,A
1781599066198,-4228,-20148,2612,3,A
1781599066219,-212,-23580,-396,3,A
1781599066241,3248,-20108,-2020,3,A
1781599066262,2232,-13884,-556,3,A
1781599066284,508,-11340,1208,3,A
1781599066306,-1192,-13884,1972,3,A
1781599066327,420,-17748,-40,3,A
1781599066349,-312,-17644,-388,3,A
1781599066371,-948,-15824,-624,3,A
1781599066393,-2816,-13272,328,3,A
1781599066414,-3096,-11996,1072,3,A
1781599066435,-2840,-11956,1968,3,A
1781599066457,-2904,-14412,2572,3,A
1781599066479,-1700,-18080,2328,3,A
1781599066501,-2276,-20444,2672,3,A
1781599066521,-1712,-21220,2180,3,A
1781599066544,-1556,-17784,2396,3,A
1781599066565,-1972,-14084,2804,3,A
1781599066587,-2112,-12368,3504,3,A
1781599066608,-1508,-12056,3848,3,A
1781599066630,-712,-13296,3372,3,A
1781599066651,-296,-15644,2924,3,A
1781599066673,-652,-17660,3128,3,A
1781599066695,-704,-18196,2780,3,A
1781599066717,-1864,-17596,3652,3,A
1781599066738,-2004,-16512,3720,3,A
1781599066759,-1928,-15272,3488,3,A
1781599066781,-952,-16872,2280,3,A
1781599066803,464,-17212,36,3,A
1781599066825,1380,-19380,-1832,3,A
1781599066846,2748,-18764,-3744,3,A
1781599066867,-812,-15768,-1948,3,A
1781599066890,-4176,-14092,16,3,A
1781599066910,-6432,-13136,1228,3,A
1781599066933,-6076,-15228,1716,3,A
1781599066954,-2452,-17280,-148,3,A
1781599066976,372,-18028,-936,3,A
1781599066997,1248,-17564,-440,3,A
1781599067019,1488,-16676,324,3,A
1781599067041,136,-16928,1552,3,A
1781599067062,-868,-17296,1348,3,A
1781599067083,-1228,-16900,504,3,A
1781599067106,-1384,-16028,-360,3,A
1781599067127,-2232,-15300,-352,3,A
1781599067149,-1788,-15020,-1260,3,A
1781599067170,-1868,-15520,-616,3,A
1781599067192,-1892,-15756,60,3,A
1781599067214,-1424,-16536,532,3,A
1781599067235,-672,-16648,92,3,A
1781599067257,-144,-16956,-144,3,A
1781599067279,-200,-16968,-220,3,A
1781599067301,-244,-16268,-732,3,A
1781599067322,-20,-15452,-1336,3,A
1781599067343,-464,-15288,-1308,3,A
1781599067365,-908,-15564,-1028,3,A
1781599067387,-812,-16004,-1332,3,A
1781599067408,-992,-15772,-1244,3,A
1781599067430,-1300,-14588,-1108,3,A
1781599067452,-1340,-14760,-1228,3,A
1781599067473,-2152,-16548,-84,3,A
1781599067494,-1680,-18412,-12,3,A
1781599067516,944,-19784,-1700,3,A
1781599067538,1304,-17944,-604,3,A
1781599067560,-1692,-15688,2648,3,A
1781599067581,-2856,-15280,4588,3,A
1781599067603,-1668,-16120,4424,3,A
1781599067624,292,-17424,2824,3,A
1781599067646,144,-18528,2844,3,A
1781599067668,132,-18812,2416,3,A
1781599067690,-408,-18008,2172,3,A
1781599067711,-1560,-15360,2356,3,A
1781599067732,-2384,-13200,2340,3,A
1781599067754,-2228,-13512,1856,3,A
1781599067776,-1016,-16056,1216,3,A
1781599067797,216,-17296,476,3,A
1781599067819,148,-17520,1044,3,A
1781599067840,136,-17424,1240,3,A
1781599067862,164,-16976,1184,3,A
1781599067883,392,-15700,1188,3,A
1781599067905,-96,-15128,1600,3,A
1781599067927,464,-15652,1224,3,A
1781599067949,992,-15952,584,3,A
1781599067969,824,-15264,816,3,A
1781599067991,836,-15132,908,3,A
1781599068013,2204,-15428,-24,3,A
1781599068035,3096,-15552,-1164,3,A
1781599068057,2780,-16020,-1660,3,A
1781599068078,1704,-14700,-1040,3,A
1781599068099,-368,-14164,-116,3,A
1781599068121,-408,-15160,-432,3,A
1781599068143,1876,-20276,-2320,3,A
1781599068165,2168,-22164,-2628,3,A
1781599068186,-2328,-18296,428,3,A
1781599068208,-7804,-15284,3684,3,A
1781599068229,-8508,-13560,3624,3,A
1781599068251,-8176,-13648,3316,3,A
1781599068273,-7192,-14524,3108,3,A
1781599068295,-6056,-15980,3868,3,A
1781599068317,-4144,-18084,4216,3,A
1781599068337,-620,-19944,3004,3,A
1781599068360,1388,-19284,2724,3,A
1781599068381,620,-17988,2460,3,A
1781599068403,-2180,-16460,2916,3,A
1781599068424,-3672,-14704,2248,3,A
1781599068446,-3884,-14032,988,3,A
1781599068467,-2928,-13712,124,3,A
1781599068489,-2384,-14872,680,3,A
1781599068510,-2260,-16052,1840,3,A
1781599068532,-1476,-17284,2560,3,A
1781599068553,-772,-17860,2532,3,A
1781599068575,-20,-17452,1644,3,A
1781599068597,-532,-16640,1200,3,A
1781599068618,-1320,-15292,900,3,A
1781599068640,-3400,-14024,1652,3,A
