timestamp,ax,ay,az,label,subject_id
1781599324128,14116,-5088,-10188,6,A
1781599324129,14180,-4876,-10676,6,A
1781599324129,14172,-4444,-10316,6,A
1781599324130,13828,-3524,-9620,6,A
1781599324130,13504,-2476,-9488,6,A
1781599324131,13568,-1808,-9904,6,A
1781599324131,13496,-1856,-9088,6,A
1781599324131,12836,-908,-8584,6,A
1781599324131,12708,-960,-8724,6,A
1781599324131,12576,-1456,-8616,6,A
1781599324131,12464,-2028,-8176,6,A
1781599324131,12108,-2528,-7972,6,A
1781599324131,11972,-2764,-8320,6,A
1781599324131,11976,-2596,-8588,6,A
1781599324132,12056,-2444,-8536,6,A
1781599324132,12168,-2740,-8224,6,A
1781599324132,12132,-3316,-7848,6,A
1781599324132,12312,-3524,-8768,6,A
1781599324132,12888,-3840,-10384,6,A
1781599324132,13224,-4860,-10972,6,A
1781599324132,13240,-5016,-10360,6,A
1781599324132,13284,-4560,-9520,6,A
1781599324133,12896,-4232,-9040,6,A
1781599324133,12924,-4180,-9968,6,A
1781599324133,13308,-3848,-10968,6,A
1781599324133,13084,-3524,-10232,6,A
1781599324133,12400,-2872,-8688,6,A
1781599324133,12584,-2728,-8600,6,A
1781599324133,12984,-3328,-9056,6,A
1781599324133,12692,-3648,-8728,6,A
1781599324134,12516,-3284,-8832,6,A
1781599324134,12660,-2492,-9568,6,A
1781599324134,12476,-2212,-9064,6,A
1781599324134,12088,-2176,-7952,6,A
1781599324134,12360,-2480,-7964,6,A
1781599324135,12768,-3124,-8760,6,A
1781599324135,12772,-3432,-9088,6,A
1781599324135,12796,-3416,-8752,6,A
1781599324136,12536,-3380,-8476,6,A
1781599324136,12580,-4036,-8996,6,A
1781599324137,12764,-4308,-10140,6,A
1781599324137,13020,-4468,-10532,6,A
1781599324137,31280,7504,-23436,6,A
1781599324138,4328,-1972,-3840,6,A
1781599324138,15452,-2368,-7780,6,A
1781599324138,21332,-10260,-12844,6,A
1781599324138,11408,-3924,-5304,6,A
1781599324139,14592,-4368,-4716,6,A
1781599324139,15232,-5840,-16380,6,A
1781599324139,14960,-6444,-7572,6,A
1781599324139,13020,-1332,2332,6,A
1781599324139,13236,-448,4408,6,A
1781599324139,14760,-1868,1012,6,A
1781599324140,18200,-8484,-14868,6,A
1781599324140,12968,3600,1384,6,A
1781599324140,13300,-1920,64,6,A
1781599324140,15492,-6752,3592,6,A
1781599324140,15204,-5704,712,6,A
1781599324141,14612,-5904,368,6,A
1781599324141,15676,-1780,-3224,6,A
1781599324141,-1244,-15440,5312,6,A
1781599324141,16116,-4568,-480,6,A
1781599324141,15276,-2868,-152,6,A
1781599324141,13216,-3292,1376,6,A
1781599324142,12884,-4980,3440,6,A
1781599324142,13684,-6104,2916,6,A
1781599324142,15200,-8548,136,6,A
1781599324142,14328,-9868,4084,6,A
1781599324142,14304,-9920,4060,6,A
1781599324142,12776,-8152,3592,6,A
1781599324142,12360,-6972,1884,6,A
1781599324143,12980,-7432,5572,6,A
1781599324143,12740,-9216,5428,6,A
1781599324143,11860,-7300,4948,6,A
1781599324143,12808,-8436,4952,6,A
1781599324144,13912,-7668,6208,6,A
1781599324144,13848,-8500,5508,6,A
1781599324144,13128,-6868,4480,6,A
1781599324144,12972,-6588,3628,6,A
1781599324144,13704,-6828,3048,6,A
1781599324145,14248,-6880,3676,6,A
1781599324145,14692,-4924,5424,6,A
1781599324145,15896,-3336,7264,6,A
1781599324145,15388,-7500,4328,6,A
1781599324145,14592,-8124,3928,6,A
1781599324145,14332,-5656,5412,6,A
1781599324145,14160,-4296,5324,6,A
1781599324146,14112,-5000,4324,6,A
1781599324146,14280,-5012,5120,6,A
1781599324146,14096,-4264,4708,6,A
1781599324146,14636,-6156,6324,6,A
1781599324146,15320,-5476,5840,6,A
1781599324147,14304,-4256,4860,6,A
1781599324147,13856,-3792,5352,6,A
1781599324150,13892,-3884,5688,6,A
1781599324172,13732,-3764,5536,6,A
1781599324193,14360,-5560,5384,6,A
1781599324215,14608,-3240,6764,6,A
1781599324236,14496,-3108,6268,6,A
1781599324258,14900,-2376,6492,6,A
1781599324281,14892,-3812,5364,6,A
1781599324302,15736,-4008,5892,6,A
1781599324324,14164,-1524,5828,6,A
1781599324345,14540,-2432,5828,6,A
1781599324367,14868,-2452,5968,6,A
1781599324388,16940,-1236,7380,6,A
1781599324410,14824,-1468,6952,6,A
1781599324431,14972,-2704,4868,6,A
1781599324453,15984,-2996,5912,6,A
1781599324475,12348,-2944,3440,6,A
1781599324496,15672,-3596,5744,6,A
1781599324518,18832,-4536,6888,6,A
1781599324539,16952,-3900,6100,6,A
1781599324562,13236,-1152,5748,6,A
1781599324582,13916,-1416,6576,6,A
1781599324604,13192,-2656,6040,6,A
1781599324626,12888,-704,7252,6,A
1781599324647,13552,-648,8260,6,A
1781599324669,12936,2156,10784,6,A
1781599324690,12336,1176,9008,6,A
1781599324712,12688,244,7732,6,A
1781599324734,12656,1524,8020,6,A
1781599324755,13256,2440,9132,6,A
1781599324778,14984,1368,11440,6,A
1781599324799,14300,3572,12936,6,A
1781599324820,14428,-1908,9952,6,A
1781599324842,13000,-956,8800,6,A
1781599324863,13340,-1040,6248,6,A
1781599324885,12996,-684,8436,6,A
1781599324906,12084,620,8352,6,A
1781599324928,14844,-2840,7956,6,A
1781599324950,14132,-1524,7968,6,A
1781599324972,13556,-1896,9292,6,A
1781599324993,13596,-1460,9468,6,A
1781599325015,13200,-1132,9212,6,A
1781599325036,14140,-1396,7796,6,A
1781599325058,14524,-1664,6896,6,A
1781599325080,14724,-1696,7208,6,A
1781599325101,12244,-424,10444,6,A
1781599325123,14588,-1500,7060,6,A
1781599325145,15280,-1148,5896,6,A
1781599325165,14936,-540,6508,6,A
1781599325188,15744,-1764,8272,6,A
1781599325209,11636,-1152,8524,6,A
1781599325230,15060,-1064,3948,6,A
1781599325252,15824,956,4148,6,A
1781599325274,14436,-1004,4356,6,A
1781599325296,15308,-1900,5960,6,A
1781599325317,13624,-1776,6784,6,A
1781599325339,15880,-2244,4192,6,A
1781599325360,13844,-1512,4536,6,A
1781599325382,15908,-2244,4428,6,A
1781599325404,15400,-2268,5524,6,A
1781599325425,15844,-656,4268,6,A
1781599325448,16976,-1620,4044,6,A
1781599325469,15368,-2336,5040,6,A
1781599325491,15260,-2972,5716,6,A
1781599325512,15032,-2484,5496,6,A
1781599325533,15264,-1684,4696,6,A
1781599325555,15956,-1564,3908,6,A
1781599325577,15800,-2244,4516,6,A
1781599325598,15596,-2076,4876,6,A
1781599325620,14624,-1964,4788,6,A
1781599325641,14660,-2320,5488,6,A
1781599325663,14976,-2960,5068,6,A
1781599325685,14760,-2520,5552,6,A
1781599325706,14896,-2112,5340,6,A
1781599325727,14932,-1848,5096,6,A
1781599325750,15500,-2168,5108,6,A
1781599325771,15900,-2680,4832,6,A
1781599325792,15476,-2808,5172,6,A
1781599325814,16148,-1920,4232,6,A
1781599325836,16228,-2276,3996,6,A
1781599325857,16088,-2672,4424,6,A
1781599325879,15624,-2992,4732,6,A
1781599325900,14060,-3748,5660,6,A
1781599325923,15076,-3040,4544,6,A
1781599325944,14400,-2604,4660,6,A
1781599325966,15168,-3340,4964,6,A
1781599325989,15416,-2972,4552,6,A
1781599326010,14720,-2844,4704,6,A
1781599326032,15324,-2088,4416,6,A
1781599326054,15228,-1896,4112,6,A
1781599326075,15260,-1920,4392,6,A
1781599326097,15372,-2124,4520,6,A
1781599326118,15952,-2876,4552,6,A
1781599326141,16196,-2956,4080,6,A
1781599326161,15508,-2896,4480,6,A
1781599326182,15420,-2892,4412,6,A
1781599326205,15464,-3204,4344,6,A
1781599326227,15528,-3560,4492,6,A
1781599326248,15376,-4044,4640,6,A
1781599326269,14564,-4480,5308,6,A
1781599326291,14892,-4948,4752,6,A
1781599326313,14560,-5248,4856,6,A
1781599326334,14712,-4876,4500,6,A
1781599326356,14348,-5016,4476,6,A
1781599326377,14088,-6252,4768,6,A
1781599326400,13624,-6556,5028,6,A
1781599326421,13760,-7460,4764,6,A
1781599326442,13160,-8656,5500,6,A
1781599326465,12748,-7996,4568,6,A
1781599326486,12404,-8952,4724,6,A
1781599326507,12476,-9660,4304,6,A
1781599326529,11780,-10524,5120,6,A
1781599326551,10324,-9404,5228,6,A
1781599326572,9976,-9856,5420,6,A
1781599326593,11428,-12328,4612,6,A
1781599326615,10656,-12304,5048,6,A
1781599326638,9820,-11592,4884,6,A
1781599326658,8940,-10844,5872,6,A
1781599326680,9060,-10544,4860,6,A
1781599326702,8012,-9536,5036,6,A
1781599326724,8368,-12652,5980,6,A
1781599326746,8220,-15216,7084,6,A
1781599326767,7764,-14960,6460,6,A
1781599326789,7988,-15596,5776,6,A
1781599326810,8084,-17544,6304,6,A
1781599326831,7864,-17452,6620,6,A
1781599326854,7008,-15192,5800,6,A
1781599326875,6476,-16756,6280,6,A
1781599326897,6660,-17684,4616,6,A
1781599326917,6380,-19072,4716,6,A
1781599326940,4596,-15876,5336,6,A
1781599326961,3976,-12624,4036,6,A
1781599326983,3160,-13332,4384,6,A
1781599327005,3092,-12520,3084,6,A
1781599327026,2612,-9640,2564,6,A
1781599327048,1372,-5432,4592,6,A
1781599327069,1148,-2112,3644,6,A
1781599327091,1096,-1420,3100,6,A
1781599327112,1764,-2200,3668,6,A
1781599327134,716,-5952,3132,6,A
1781599327156,-2180,-12880,3912,6,A
1781599327178,-5164,-21316,5984,6,A
1781599327199,-4016,-26020,3408,6,A
1781599327221,-432,-31612,-44,6,A
1781599327243,1912,-32260,-1188,6,A
1781599327263,1592,-29244,-724,6,A
1781599327285,1668,-24708,-588,6,A
1781599327308,2228,-24164,-540,6,A
1781599327329,2532,-23596,-588,6,A
1781599327350,2572,-22012,-304,6,A
1781599327371,2292,-20516,252,6,A
1781599327394,2092,-17776,484,6,A
1781599327415,2072,-14216,844,6,A
1781599327437,2016,-12520,1172,6,A
1781599327458,2328,-9624,1048,6,A
1781599327479,2140,-7660,1572,6,A
1781599327501,964,-7732,3212,6,A
1781599327523,384,-5236,3756,6,A
1781599327544,72,-904,3976,6,A
1781599327566,-1024,-972,5212,6,A
1781599327587,-964,136,5392,6,A
1781599327609,-576,-2344,4004,6,A
1781599327631,-3096,-10228,3676,6,A
1781599327652,-4992,-21828,3692,6,A
1781599327674,-3584,-25860,3092,6,A
1781599327695,-1464,-27076,1056,6,A
1781599327718,-1056,-30176,1060,6,A
1781599327739,-492,-30356,1096,6,A
1781599327760,876,-26776,460,6,A
1781599327782,1016,-24568,460,6,A
1781599327803,1124,-24860,772,6,A
1781599327826,1224,-23172,1132,6,A
1781599327846,1260,-20652,1284,6,A
1781599327868,1720,-18436,536,6,A
1781599327891,920,-16296,1460,6,A
1781599327911,720,-13940,1492,6,A
1781599327934,1228,-12832,1452,6,A
1781599327955,1380,-10084,1372,6,A
1781599327976,708,-8852,3100,6,A
1781599327998,544,-5664,3660,6,A
1781599328019,588,-2824,4416,6,A
1781599328041,984,-3452,3972,6,A
1781599328063,1012,-4220,3212,6,A
1781599328085,828,-6788,3056,6,A
1781599328106,-536,-11488,3308,6,A
1781599328127,-52,-15812,1664,6,A
1781599328150,584,-20964,668,6,A
1781599328170,628,-24420,20,6,A
1781599328192,248,-24712,28,6,A
1781599328214,556,-24568,132,6,A
1781599328235,1652,-24024,-1044,6,A
1781599328257,2100,-24840,-1424,6,A
1781599328279,844,-25200,-452,6,A
1781599328301,-284,-24956,1208,6,A
1781599328322,540,-23036,-44,6,A
1781599328343,896,-21356,-88,6,A
1781599328366,744,-18132,208,6,A
1781599328387,112,-15108,1528,6,A
1781599328408,112,-12440,1992,6,A
1781599328430,944,-11040,1804,6,A
1781599328452,1764,-9740,1652,6,A
1781599328473,1384,-8384,2420,6,A
1781599328494,764,-6676,2748,6,A
1781599328517,1640,-6232,1672,6,A
1781599328538,1640,-7128,884,6,A
1781599328559,292,-7712,2436,6,A
1781599328581,240,-7164,2100,6,A
1781599328602,468,-10908,1492,6,A
1781599328625,-1228,-16576,1720,6,A
1781599328646,-3892,-22584,4048,6,A
1781599328667,-3240,-23372,2728,6,A
1781599328689,-1800,-25116,1440,6,A
1781599328711,-1256,-26184,288,6,A
1781599328732,-984,-27156,76,6,A
1781599328754,-484,-25384,-352,6,A
1781599328776,-228,-23864,32,6,A
1781599328798,280,-23348,-480,6,A
1781599328819,-12,-21952,-40,6,A
1781599328841,60,-20012,288,6,A
1781599328861,64,-17928,336,6,A
1781599328883,476,-16312,660,6,A
1781599328905,316,-14812,1268,6,A
1781599328927,600,-13428,1304,6,A
1781599328948,468,-11672,1656,6,A
1781599328970,-280,-12092,2400,6,A
1781599328991,-1832,-11240,3740,6,A
1781599329013,-1940,-9604,3940,6,A
1781599329036,-1100,-7820,3344,6,A
1781599329057,-200,-5900,3520,6,A
1781599329078,-244,-5348,4088,6,A
1781599329099,164,-6896,3672,6,A
1781599329121,1516,-8288,1632,6,A
1781599329142,1924,-11724,188,6,A
1781599329164,360,-17576,1072,6,A
1781599329186,-924,-21364,1916,6,A
1781599329207,-404,-21760,1072,6,A
1781599329229,-364,-23688,1236,6,A
1781599329250,16,-26384,1664,6,A
1781599329272,-1476,-26124,3292,6,A
1781599329294,-2152,-25436,3804,6,A
1781599329316,-496,-23656,2484,6,A
1781599329337,456,-21732,1504,6,A
1781599329359,980,-19460,1028,6,A
1781599329380,968,-17708,1408,6,A
1781599329401,1192,-15500,1896,6,A
1781599329424,1260,-14260,1972,6,A
1781599329445,1368,-13884,2348,6,A
1781599329467,336,-13384,3384,6,A
1781599329488,52,-11016,3496,6,A
1781599329509,504,-9528,3640,6,A
1781599329531,1624,-7088,2824,6,A
1781599329552,1552,-6192,2992,6,A
1781599329575,600,-6376,2992,6,A
1781599329596,2136,-7520,1520,6,A
1781599329617,1292,-10600,2336,6,A
1781599329640,-140,-11840,3180,6,A
1781599329661,-1460,-14392,3944,6,A
1781599329682,-2376,-17100,4668,6,A
1781599329704,-920,-19636,3368,6,A
1781599329725,-92,-21716,3560,6,A
1781599329747,-36,-24716,3936,6,A
1781599329769,-196,-26132,4436,6,A
1781599329790,472,-24124,3388,6,A
1781599329812,948,-24324,3208,6,A
1781599329834,2220,-23544,2300,6,A
1781599329855,2812,-21548,1596,6,A
1781599329878,2096,-20092,2092,6,A
1781599329899,1756,-19020,2560,6,A
1781599329921,1872,-17708,2532,6,A
1781599329943,1488,-15596,2716,6,A
1781599329965,1564,-13304,2704,6,A
1781599329986,1500,-11312,2784,6,A
1781599330008,1192,-9940,2960,6,A
1781599330029,1132,-9480,3516,6,A
1781599330051,1244,-9532,3992,6,A
1781599330072,1736,-8356,3508,6,A
1781599330093,1456,-6928,3676,6,A
1781599330115,704,-6244,4272,6,A
1781599330137,160,-8932,4952,6,A
1781599330158,40,-10572,4664,6,A
1781599330180,56,-9584,4900,6,A
1781599330202,-132,-13012,3864,6,A
1781599330223,-604,-19340,4520,6,A
1781599330245,-940,-21372,5424,6,A
1781599330267,-1148,-24240,5908,6,A
1781599330288,-588,-26868,5712,6,A
1781599330310,328,-28700,5660,6,A
1781599330331,700,-27432,4908,6,A
1781599330353,-316,-24840,5000,6,A
1781599330375,-704,-23112,5356,6,A
1781599330397,616,-18804,3676,6,A
1781599330417,1896,-16032,2936,6,A
1781599330439,2488,-14572,3500,6,A
1781599330461,2840,-13500,3208,6,A
1781599330482,2376,-12376,3644,6,A
1781599330504,2012,-11272,3752,6,A
1781599330526,1604,-10496,4048,6,A
1781599330547,492,-11836,4104,6,A
1781599330569,-40,-11912,4488,6,A
1781599330590,296,-9448,4236,6,A
1781599330612,-940,-8340,5476,6,A
1781599330633,-908,-8020,5464,6,A
1781599330655,876,-8448,4876,6,A
1781599330676,1288,-6576,3896,6,A
1781599330698,-228,-10528,5852,6,A
1781599330720,-1964,-17068,7556,6,A
1781599330741,-2792,-20124,9096,6,A
1781599330762,-1764,-22008,8280,6,A
1781599330785,-704,-22832,7048,6,A
1781599330806,-684,-23188,7312,6,A
1781599330828,-484,-23896,7044,6,A
1781599330849,868,-23328,5776,6,A
1781599330871,976,-22588,4632,6,A
1781599330892,680,-21752,4792,6,A
1781599330914,364,-20628,4632,6,A
1781599330936,352,-19120,4008,6,A
1781599330957,448,-17388,3572,6,A
1781599330979,384,-16104,3276,6,A
1781599331001,20,-15164,3608,6,A
1781599331022,-64,-13336,3280,6,A
1781599331044,264,-11568,2796,6,A
1781599331065,576,-10620,2740,6,A
1781599331087,52,-9320,2928,6,A
1781599331109,-612,-7912,3044,6,A
1781599331129,-228,-7532,2480,6,A
1781599331151,576,-6388,2780,6,A
1781599331173,400,-6908,3000,6,A
1781599331195,-2136,-9628,5584,6,A
1781599331216,-1568,-9036,4076,6,A
1781599331238,340,-12188,1784,6,A
1781599331260,-348,-19316,2648,6,A
1781599331281,-3136,-24896,5896,6,A
1781599331303,-2260,-23792,4588,6,A
1781599331324,260,-23804,2116,6,A
1781599331345,420,-24768,2276,6,A
1781599331367,-1020,-23888,3088,6,A
1781599331389,-1284,-23916,3596,6,A
1781599331410,-752,-22420,3116,6,A
1781599331432,304,-19400,2020,6,A
1781599331453,640,-17832,1944,6,A
1781599331475,1104,-15768,2216,6,A
1781599331497,1220,-14216,2492,6,A
1781599331518,1768,-13436,2052,6,A
1781599331540,1772,-13460,2600,6,A
1781599331562,1704,-12872,2964,6,A
1781599331583,1976,-10600,2688,6,A
1781599331605,2020,-9524,2756,6,A
1781599331627,2056,-8560,2476,6,A
1781599331648,1548,-9024,2688,6,A
1781599331670,960,-9920,3408,6,A
1781599331691,1128,-9196,3304,6,A
1781599331712,944,-7252,2680,6,A
1781599331735,-600,-11556,4456,6,A
1781599331756,384,-13776,3988,6,A
1781599331779,592,-14440,3744,6,A
1781599331801,-776,-18296,4116,6,A
1781599331823,-1428,-23312,5688,6,A
1781599331844,-536,-25004,5200,6,A
1781599331866,-124,-24944,4776,6,A
1781599331887,1036,-26796,3968,6,A
1781599331909,512,-26292,3952,6,A
1781599331931,-20,-24428,4488,6,A
1781599331952,-676,-23516,5200,6,A
1781599331974,-448,-20152,4300,6,A
1781599331996,-872,-18348,4564,6,A
1781599332017,-1444,-16900,4976,6,A
1781599332039,-188,-14444,3492,6,A
1781599332060,-136,-12964,3612,6,A
1781599332082,-484,-11688,4112,6,A
1781599332103,-956,-9456,4496,6,A
1781599332125,-948,-7748,4084,6,A
1781599332147,1448,-6896,2084,6,A
1781599332168,288,-7680,3340,6,A
1781599332190,-992,-9592,4644,6,A
1781599332211,60,-9256,3384,6,A
1781599332233,160,-10512,3980,6,A
1781599332254,-708,-11264,5316,6,A
1781599332276,-2784,-12392,7284,6,A
1781599332298,-1320,-14016,6172,6,A
1781599332319,1268,-14828,4740,6,A
1781599332341,532,-16404,5996,6,A
1781599332363,-1872,-20016,8732,6,A
1781599332384,-2912,-23156,9932,6,A
1781599332406,-2000,-24976,9180,6,A
1781599332427,-732,-24724,7832,6,A
1781599332449,-848,-23484,7024,6,A
1781599332471,-1084,-21528,6276,6,A
1781599332492,8,-20052,3960,6,A
1781599332514,1496,-17592,2220,6,A
1781599332536,1708,-14832,1808,6,A
1781599332557,1012,-13096,2456,6,A
1781599332579,60,-11804,3492,6,A
1781599332600,-1468,-10920,5028,6,A
1781599332621,-932,-9328,5052,6,A
1781599332643,228,-9044,4376,6,A
1781599332665,-580,-8696,4872,6,A
1781599332686,-1660,-9892,5552,6,A
1781599332709,-3116,-12068,7248,6,A
1781599332730,-588,-12184,4232,6,A
1781599332753,472,-12004,2924,6,A
1781599332773,1596,-9480,1496,6,A
1781599332795,2624,-11948,1780,6,A
1781599332816,204,-13512,4096,6,A
1781599332838,-2184,-13876,5692,6,A
1781599332860,-1700,-18060,6920,6,A
1781599332881,-944,-20512,5916,6,A
1781599332903,-16,-19924,4124,6,A
1781599332925,-192,-22828,4676,6,A
1781599332946,636,-24816,4672,6,A
1781599332968,3548,-24056,1300,6,A
1781599332989,3316,-22956,1436,6,A
1781599333011,2396,-21124,2104,6,A
1781599333032,648,-20848,4032,6,A
1781599333054,932,-19044,3268,6,A
1781599333076,1256,-17280,3200,6,A
1781599333098,620,-15780,2696,6,A
1781599333119,1344,-14412,1416,6,A
1781599333141,2452,-12180,-76,6,A
1781599333162,1804,-10848,1072,6,A
1781599333184,2108,-10340,516,6,A
1781599333205,1856,-9564,1284,6,A
1781599333227,1176,-10648,3152,6,A
1781599333248,52,-11248,4752,6,A
1781599333271,-448,-12860,5244,6,A
1781599333291,168,-13884,5172,6,A
1781599333314,688,-15852,4656,6,A
1781599333335,1052,-16268,4248,6,A
1781599333357,568,-18944,4924,6,A
1781599333379,-2288,-23112,5832,6,A
1781599333400,-24,-26912,1112,6,A
1781599333423,4252,-29688,-2392,6,A
1781599333443,4940,-26140,-2360,6,A
1781599333465,1624,-24724,-1072,6,A
1781599333487,2108,-24076,-2344,6,A
1781599333508,3128,-19964,-1936,6,A
1781599333529,1412,-14760,148,6,A
1781599333552,-1076,-12068,3036,6,A
1781599333573,-656,-9196,3424,6,A
1781599333595,-116,-7452,3952,6,A
1781599333616,292,-5540,3604,6,A
1781599333637,180,-4872,3376,6,A
1781599333660,240,-3272,2864,6,A
1781599333681,2000,-3196,1424,6,A
1781599333703,2168,-5460,1712,6,A
1781599333724,1688,-6236,1224,6,A
1781599333746,-1024,-8092,4212,6,A
1781599333768,-1320,-10916,4448,6,A
1781599333789,-2060,-17276,5700,6,A
1781599333811,-2028,-19476,4264,6,A
1781599333833,-1332,-23852,3600,6,A
1781599333854,2448,-31060,144,6,A
1781599333876,4240,-32768,-408,6,A
1781599333897,2328,-32768,1084,6,A
1781599333919,2032,-30824,-40,6,A
1781599333941,2316,-27264,-192,6,A
1781599333963,572,-21808,1192,6,A
1781599333984,-2412,-19696,3844,6,A
1781599334006,-1564,-16928,2604,6,A
1781599334027,-736,-15264,2152,6,A
1781599334050,-616,-14864,1680,6,A
1781599334071,-156,-13452,316,6,A
1781599334092,288,-11228,-112,6,A
1781599334114,664,-8324,-312,6,A
1781599334135,244,-8052,592,6,A
1781599334157,-280,-6332,880,6,A
1781599334180,-928,-4936,1932,6,A
1781599334201,-484,-4244,3020,6,A
1781599334222,-2560,-7100,6608,6,A
1781599334244,-3392,-7900,7280,6,A
1781599334265,-1776,-9332,4548,6,A
1781599334288,96,-12384,2272,6,A
1781599334309,-3440,-19516,6664,6,A
1781599334330,-1996,-24012,3588,6,A
1781599334353,3128,-29816,-272,6,A
1781599334374,4012,-32768,2212,6,A
1781599334396,2260,-31100,3064,6,A
1781599334417,548,-25644,4364,6,A
1781599334440,-1240,-21968,4472,6,A
1781599334461,-1028,-18892,2984,6,A
1781599334483,-956,-16152,3084,6,A
1781599334505,-1960,-15340,4440,6,A
1781599334527,-3108,-15168,5892,6,A
1781599334547,-1728,-15724,4392,6,A
1781599334569,1592,-14696,2176,6,A
1781599334591,1368,-12312,2248,6,A
1781599334612,444,-9324,2228,6,A
1781599334634,116,-6968,2372,6,A
1781599334656,292,-6348,2732,6,A
1781599334678,2008,-4748,1316,6,A
1781599334699,1836,-4956,2024,6,A
1781599334721,-1420,-6904,5556,6,A
1781599334742,-3200,-10096,7968,6,A
1781599334764,-948,-12256,4728,6,A
1781599334786,3844,-18824,104,6,A
1781599334807,4124,-26932,2764,6,A
1781599334829,-1580,-28304,5408,6,A
1781599334850,796,-29088,2608,6,A
1781599334871,4748,-28792,212,6,A
1781599334894,4496,-27508,640,6,A
1781599334915,1388,-22836,2328,6,A
1781599334937,-1372,-18720,4768,6,A
1781599334958,-1020,-16052,4464,6,A
1781599334980,-300,-17152,4964,6,A
1781599335003,-332,-16360,2960,6,A
1781599335023,-160,-16544,2856,6,A
1781599335046,460,-15160,1988,6,A
1781599335066,-928,-13940,3732,6,A
1781599335088,-2120,-12164,4496,6,A
1781599335110,-1500,-10404,3464,6,A
1781599335131,-1116,-10476,3020,6,A
1781599335155,-104,-9168,1704,6,A
1781599335174,392,-7596,1228,6,A
1781599335196,664,-5712,-116,6,A
1781599335217,592,-8012,12,6,A
1781599335240,1232,-10464,588,6,A
1781599335261,1212,-9812,436,6,A
1781599335283,-3160,-13072,3664,6,A
1781599335304,-4500,-18512,2560,6,A
1781599335326,436,-28364,-296,6,A
1781599335347,1940,-32768,888,6,A
1781599335369,-308,-30404,2720,6,A
1781599335391,-1472,-27560,2988,6,A
1781599335412,-524,-23276,2768,6,A
1781599335434,-1448,-19472,3392,6,A
1781599335456,-1956,-16244,2736,6,A
1781599335478,-1244,-15212,1764,6,A
1781599335499,780,-14568,520,6,A
1781599335520,1292,-12848,76,6,A
1781599335542,356,-12256,604,6,A
1781599335563,1040,-10796,-868,6,A
1781599335585,2388,-9504,-2144,6,A
1781599335607,2508,-8488,-2056,6,A
1781599335628,1656,-6972,-1100,6,A
1781599335649,36,-6412,640,6,A
1781599335672,-2152,-7184,2236,6,A
1781599335694,-1632,-7388,2164,6,A
1781599335715,-2240,-11072,4144,6,A
1781599335736,-5400,-13908,6012,6,A
1781599335758,-6784,-20444,5024,6,A
1781599335780,-2704,-29868,3124,6,A
1781599335801,2584,-32768,772,6,A
1781599335823,1032,-30300,1904,6,A
1781599335845,-1232,-23096,2564,6,A
1781599335867,-2040,-18260,3568,6,A
1781599335888,-2108,-15360,3816,6,A
1781599335914,-2044,-13956,3388,6,A
1781599335931,-2096,-14092,3152,6,A
1781599335953,-2008,-15108,2860,6,A
1781599335974,-920,-15884,1588,6,A
1781599335996,-356,-15912,952,6,A
1781599336017,-432,-14020,240,6,A
1781599336039,-76,-11768,-792,6,A
1781599336061,512,-10652,-1364,6,A
1781599336082,556,-9996,-1772,6,A
1781599336104,-288,-9152,-1140,6,A
1781599336126,-916,-10836,-252,6,A
1781599336147,-2448,-15896,2112,6,A
1781599336169,-2240,-19424,2080,6,A
1781599336190,-1680,-24316,2572,6,A
1781599336213,-392,-26688,2220,6,A
1781599336234,936,-25452,1420,6,A
1781599336256,-344,-22908,1892,6,A
1781599336277,-1544,-20212,2348,6,A
1781599336299,-480,-17872,948,6,A
1781599336320,-912,-19076,1352,6,A
1781599336341,176,-19612,-120,6,A
1781599336363,1936,-18368,-1600,6,A
1781599336385,1648,-17116,-764,6,A
1781599336407,520,-14764,-168,6,A
1781599336428,220,-12152,-188,6,A
1781599336450,260,-11488,916,6,A
1781599336471,572,-9928,596,6,A
1781599336493,800,-7756,420,6,A
1781599336515,1164,-6912,900,6,A
1781599336536,780,-5692,1228,6,A
1781599336558,-648,-8020,1976,6,A
1781599336580,-2416,-15292,3368,6,A
1781599336601,-1648,-22348,3184,6,A
1781599336622,1680,-26724,644,6,A
1781599336644,2464,-28804,804,6,A
1781599336666,1040,-27456,1380,6,A
1781599336688,944,-22784,1264,6,A
1781599336709,1008,-20232,1368,6,A
1781599336730,420,-17620,1476,6,A
1781599336752,64,-15576,2032,6,A
1781599336773,348,-13276,2176,6,A
1781599336795,704,-13264,1988,6,A
1781599336817,704,-16028,2324,6,A
1781599336839,2508,-14812,1040,6,A
1781599336860,2580,-12464,876,6,A
1781599336882,1728,-11192,2316,6,A
1781599336903,1976,-9132,2292,6,A
1781599336924,2604,-7680,2108,6,A
1781599336947,2240,-7240,2268,6,A
1781599336968,1272,-5900,2064,6,A
1781599336989,936,-4980,2488,6,A
1781599337011,284,-7384,2476,6,A
1781599337033,-1280,-9988,2500,6,A
1781599337055,-4308,-18084,1888,6,A
1781599337076,-3252,-30800,1292,6,A
1781599337098,3384,-32768,-3284,6,A
1781599337120,5376,-32768,-3840,6,A
1781599337141,2564,-28920,-2172,6,A
1781599337162,-208,-23816,344,6,A
1781599337184,-1272,-21476,2464,6,A
1781599337206,-600,-18864,2524,6,A
1781599337227,-456,-17588,2388,6,A
1781599337250,-768,-17888,2424,6,A
1781599337271,848,-16848,728,6,A
1781599337292,2480,-15404,-640,6,A
1781599337313,2484,-13716,-476,6,A
1781599337335,1300,-12776,844,6,A
1781599337357,1372,-11308,1104,6,A
1781599337379,1176,-10752,1464,6,A
1781599337400,744,-9968,1388,6,A
1781599337422,436,-10064,1356,6,A
1781599337443,1396,-10296,424,6,A
1781599337465,1692,-11068,-736,6,A
1781599337486,736,-15416,160,6,A
1781599337508,364,-16852,1180,6,A
1781599337529,1692,-16760,400,6,A
1781599337552,1548,-16636,1048,6,A
1781599337574,1068,-15956,1784,6,A
1781599337596,1168,-15064,1928,6,A
1781599337617,900,-15320,2340,6,A
1781599337639,644,-16740,2848,6,A
1781599337660,-392,-19200,4140,6,A
1781599337682,996,-18872,2952,6,A
1781599337704,2336,-18960,1916,6,A
1781599337725,2112,-17848,2344,6,A
1781599337746,1932,-16164,2008,6,A
1781599337769,2092,-15744,1720,6,A
1781599337790,2388,-14360,680,6,A
1781599337811,1732,-15016,1488,6,A
1781599337834,1116,-14888,1704,6,A
1781599337856,540,-14096,1712,6,A
1781599337877,236,-15124,2396,6,A
1781599337898,600,-16476,2048,6,A
1781599337920,1128,-17668,1056,6,A
1781599337941,1700,-19908,1912,6,A
1781599337964,2920,-19444,1304,6,A
1781599337985,2820,-18936,1364,6,A
1781599338007,2324,-19284,1960,6,A
1781599338028,2660,-18932,1648,6,A
1781599338050,2860,-19220,1520,6,A
1781599338071,2528,-18564,1900,6,A
1781599338093,1952,-18744,1480,6,A
1781599338114,2064,-19000,1028,6,A
1781599338136,3228,-17400,128,6,A
1781599338157,2240,-15580,812,6,A
1781599338180,1196,-13692,1292,6,A
1781599338201,1712,-11384,916,6,A
1781599338222,1616,-10664,1504,6,A
1781599338244,1028,-9564,2000,6,A
1781599338265,972,-7780,1920,6,A
1781599338287,928,-6596,2148,6,A
1781599338309,728,-9176,640,6,A
1781599338331,-264,-10196,3176,6,A
1781599338352,-268,-11476,3256,6,A
1781599338374,-732,-13500,2784,6,A
1781599338395,-2408,-22288,1076,6,A
1781599338417,1828,-27324,-1952,6,A
1781599338438,4700,-27800,-2124,6,A
1781599338460,2520,-25620,-320,6,A
1781599338481,704,-23164,724,6,A
1781599338504,992,-19848,1824,6,A
1781599338525,-104,-18236,3360,6,A
1781599338546,-300,-17644,4496,6,A
1781599338568,-600,-18248,4096,6,A
1781599338590,1940,-17392,2172,6,A
1781599338612,3136,-15748,1528,6,A
1781599338633,1932,-15172,1956,6,A
1781599338654,1476,-14716,1252,6,A
1781599338676,1792,-13280,604,6,A
1781599338697,1920,-12136,732,6,A
1781599338719,2020,-10776,216,6,A
1781599338741,2344,-9568,224,6,A
1781599338762,2040,-8060,1052,6,A
1781599338783,1784,-6684,2076,6,A
1781599338805,592,-7556,3664,6,A
1781599338827,-1096,-13640,4412,6,A
1781599338848,92,-18332,2624,6,A
1781599338870,3368,-24148,1232,6,A
1781599338891,3968,-28264,880,6,A
1781599338913,4164,-26440,1600,6,A
1781599338935,1920,-23264,3480,6,A
1781599338956,780,-20268,5328,6,A
1781599338978,312,-17948,5224,6,A
1781599339000,-8,-18152,4444,6,A
1781599339021,1888,-16832,3184,6,A
1781599339043,2048,-15448,3256,6,A
1781599339065,1256,-14916,3584,6,A
1781599339087,1808,-14924,3108,6,A
1781599339108,2416,-13720,3140,6,A
1781599339130,1852,-12968,3768,6,A
1781599339152,1400,-13540,3340,6,A
1781599339173,2716,-12928,1996,6,A
1781599339195,3716,-11188,1812,6,A
1781599339216,3292,-10520,2672,6,A
1781599339237,2848,-10640,2832,6,A
1781599339259,3224,-11520,2716,6,A
1781599339280,4012,-13208,2020,6,A
1781599339303,5084,-13236,1396,6,A
1781599339325,4680,-14388,2312,6,A
1781599339346,4288,-14436,2660,6,A
1781599339368,2572,-17040,5004,6,A
1781599339389,1512,-18252,6004,6,A
1781599339411,1848,-19424,5696,6,A
1781599339433,2048,-20508,5524,6,A
1781599339454,2572,-20288,4856,6,A
1781599339476,3208,-18268,4060,6,A
1781599339497,2688,-17072,4296,6,A
1781599339520,3040,-17176,3940,6,A
1781599339541,4196,-15980,2744,6,A
1781599339562,3820,-15352,3164,6,A
1781599339584,3812,-14124,2724,6,A
1781599339606,3796,-13824,2548,6,A
1781599339628,4196,-13820,2036,6,A
1781599339650,4268,-12952,1768,6,A
1781599339671,3576,-11376,2556,6,A
1781599339693,2460,-10260,3996,6,A
1781599339714,1568,-8856,4724,6,A
1781599339735,1692,-8668,4208,6,A
1781599339758,2252,-8664,4224,6,A
1781599339779,1380,-7428,3836,6,A
1781599339801,-184,-11724,5244,6,A
1781599339822,576,-17296,2728,6,A
1781599339844,3748,-21592,568,6,A
1781599339866,3376,-21908,1396,6,A
1781599339887,456,-20104,3036,6,A
1781599339909,-2412,-24232,3448,6,A
1781599339930,2060,-27176,2200,6,A
1781599339952,3232,-25536,1788,6,A
1781599339973,356,-21300,4308,6,A
1781599339995,-724,-18116,4396,6,A
1781599340017,-444,-16408,5072,6,A
1781599340039,20,-15276,4476,6,A
1781599340060,884,-13856,3108,6,A
1781599340083,940,-12964,3172,6,A
1781599340104,812,-13344,3568,6,A
1781599340124,1664,-12792,2396,6,A
1781599340146,2388,-11744,1672,6,A
1781599340169,1820,-10588,2312,6,A
1781599340190,1304,-10012,3088,6,A
1781599340211,1420,-9560,2472,6,A
1781599340234,1188,-11576,3228,6,A
1781599340255,872,-11964,4388,6,A
1781599340277,296,-11580,4724,6,A
1781599340298,-3056,-12420,6636,6,A
1781599340320,-3572,-18196,8740,6,A
1781599340341,1192,-24552,4936,6,A
1781599340363,4416,-26080,2432,6,A
1781599340385,2668,-26036,4488,6,A
1781599340406,244,-24124,6920,6,A
1781599340427,1024,-22884,7124,6,A
1781599340449,1468,-20996,6108,6,A
1781599340471,316,-18220,6368,6,A
1781599340492,172,-18880,5756,6,A
1781599340514,1780,-17244,4192,6,A
1781599340536,2084,-14752,3064,6,A
1781599340558,1884,-11872,2524,6,A
1781599340579,1604,-9916,2280,6,A
1781599340600,1840,-8588,2288,6,A
1781599340621,1964,-7232,2304,6,A
1781599340644,2236,-5716,1640,6,A
1781599340664,1576,-4816,1588,6,A
1781599340687,-204,-4920,3460,6,A
1781599340709,-1244,-5400,3760,6,A
1781599340730,-1588,-10716,4576,6,A
1781599340751,-2844,-18528,6864,6,A
1781599340773,-2568,-26588,9652,6,A
1781599340795,2968,-31232,4608,6,A
1781599340817,4432,-32352,4648,6,A
1781599340837,1276,-29572,9340,6,A
1781599340860,1980,-26084,9144,6,A
1781599340881,1876,-20388,8092,6,A
1781599340902,60,-16656,8820,6,A
1781599340924,-500,-14624,9052,6,A
1781599340946,2148,-14788,5556,6,A
1781599340968,2228,-14624,5092,6,A
1781599340988,1964,-13396,4680,6,A
1781599341010,2164,-12164,4172,6,A
1781599341033,2248,-11620,4392,6,A
1781599341054,1780,-10240,3556,6,A
1781599341075,1188,-9332,3480,6,A
1781599341097,1428,-7944,2564,6,A
1781599341119,1600,-5916,1676,6,A
1781599341140,800,-4524,2024,6,A
1781599341161,140,-4168,3140,6,A
1781599341183,28,-4048,3872,6,A
1781599341205,-2424,-6728,8684,6,A
1781599341226,-3016,-10988,10012,6,A
1781599341249,-2268,-20404,11000,6,A
1781599341270,1576,-32768,9764,6,A
1781599341291,5776,-32768,8120,6,A
1781599341313,5304,-32768,5436,6,A
1781599341335,3184,-28156,6672,6,A
1781599341356,852,-22396,7072,6,A
1781599341377,-852,-18256,7760,6,A
1781599341399,-1640,-16820,7812,6,A
1781599341421,-548,-16644,6144,6,A
1781599341442,672,-15416,3892,6,A
1781599341464,1044,-12948,3416,6,A
1781599341485,560,-10736,2944,6,A
1781599341507,452,-8052,3192,6,A
1781599341529,364,-5712,3412,6,A
1781599341550,644,-5088,4372,6,A
1781599341571,880,-3964,4484,6,A
1781599341593,412,-3020,4552,6,A
1781599341615,-84,-5272,6672,6,A
1781599341637,-532,-10020,6892,6,A
1781599341658,872,-15744,3712,6,A
1781599341680,3984,-23688,1572,6,A
1781599341701,4764,-25156,2480,6,A
1781599341723,2056,-23300,6144,6,A
1781599341744,148,-22652,9144,6,A
1781599341767,700,-20812,9564,6,A
1781599341788,948,-19904,9776,6,A
1781599341809,984,-18532,9108,6,A
1781599341831,772,-17052,8676,6,A
1781599341852,1648,-15812,6660,6,A
1781599341873,2548,-13660,4632,6,A
1781599341895,2528,-12056,4376,6,A
1781599341918,2176,-10696,4344,6,A
1781599341939,2132,-9256,4208,6,A
1781599341960,1020,-7224,4044,6,A
1781599341982,460,-6536,3688,6,A
1781599342003,892,-7460,3132,6,A
1781599342025,2296,-6164,788,6,A
1781599342047,2428,-6572,808,6,A
1781599342069,-748,-11268,2600,6,A
1781599342091,-4032,-19000,5184,6,A
1781599342112,12,-27380,1644,6,A
1781599342133,6588,-32768,-304,6,A
1781599342155,7480,-32768,1032,6,A
1781599342177,3268,-27836,4588,6,A
1781599342198,476,-23792,8020,6,A
1781599342219,1024,-20092,7728,6,A
1781599342242,712,-19992,7548,6,A
1781599342263,580,-21984,6252,6,A
1781599342285,2208,-21616,3556,6,A
1781599342306,2792,-20552,3048,6,A
1781599342327,1872,-19268,3444,6,A
1781599342349,-312,-13884,3756,6,A
1781599342371,-1040,-11852,4700,6,A
1781599342393,-1748,-8784,4404,6,A
1781599342414,-1092,-4320,4048,6,A
1781599342436,892,-3160,1988,6,A
1781599342457,2292,-1008,2472,6,A
1781599342479,2864,2236,3324,6,A
1781599342500,1628,1680,4928,6,A
1781599342522,1032,596,4820,6,A
1781599342543,1044,-4672,3904,6,A
1781599342565,-720,-10232,2356,6,A
1781599342587,-1688,-26680,1284,6,A
1781599342608,-852,-32768,3764,6,A
1781599342630,2592,-32768,3868,6,A
1781599342652,2784,-30384,6828,6,A
1781599342673,736,-28208,8104,6,A
1781599342694,16,-24768,7880,6,A
1781599342717,380,-21352,8604,6,A
1781599342738,8,-18224,7912,6,A
1781599342759,340,-16364,6292,6,A
1781599342781,1468,-14620,4124,6,A
1781599342803,1916,-11704,2296,6,A
1781599342824,2512,-9992,1532,6,A
1781599342846,2732,-8076,1216,6,A
1781599342867,1852,-7552,2244,6,A
1781599342889,1308,-6488,2240,6,A
1781599342910,1308,-4548,3052,6,A
1781599342933,1640,-4852,3800,6,A
1781599342954,2224,-5956,3272,6,A
1781599342975,1724,-7732,1940,6,A
1781599342998,1584,-10404,1248,6,A
1781599343019,-2056,-18140,4676,6,A
1781599343040,-4972,-25272,6804,6,A
1781599343063,-1236,-28368,2632,6,A
1781599343084,1260,-27124,1752,6,A
1781599343106,680,-26264,4280,6,A
1781599343127,72,-23372,5480,6,A
1781599343149,176,-20040,5116,6,A
1781599343170,-208,-19056,5156,6,A
1781599343191,532,-18072,5208,6,A
1781599343214,976,-16216,4608,6,A
1781599343235,1612,-14780,5100,6,A
1781599343256,2128,-13592,5532,6,A
1781599343279,2628,-12196,4704,6,A
1781599343301,2132,-11656,4444,6,A
1781599343322,1252,-13776,4068,6,A
1781599343345,1144,-14604,3592,6,A
1781599343366,1796,-13616,3136,6,A
1781599343388,2372,-13116,2812,6,A
1781599343409,2496,-13348,2736,6,A
1781599343431,1352,-13160,4444,6,A
1781599343453,188,-13608,5532,6,A
1781599343474,-528,-13672,6040,6,A
1781599343496,-248,-14916,6412,6,A
1781599343517,404,-15180,5784,6,A
1781599343538,480,-16264,6392,6,A
1781599343561,12,-17200,6644,6,A
1781599343581,316,-18488,7124,6,A
1781599343603,1100,-17792,6496,6,A
1781599343625,1484,-17948,5612,6,A
1781599343647,1888,-16708,5496,6,A
1781599343669,1600,-15208,5092,6,A
1781599343690,1292,-14224,4744,6,A
1781599343711,704,-13400,4100,6,A
1781599343733,488,-12696,4156,6,A
1781599343755,156,-12568,4016,6,A
1781599343776,-32,-12504,3236,6,A
1781599343798,604,-13424,2916,6,A
1781599343819,940,-14008,2908,6,A
1781599343840,424,-14996,3480,6,A
1781599343862,332,-16600,4260,6,A
1781599343884,512,-16964,3588,6,A
1781599343906,580,-17432,4232,6,A
1781599343927,440,-17504,4692,6,A
1781599343949,-140,-16668,4928,6,A
1781599343971,-256,-16932,4976,6,A
1781599343992,-164,-16904,4960,6,A
1781599344014,-444,-16744,4996,6,A
1781599344036,-212,-16248,4360,6,A
1781599344057,224,-16092,3896,6,A
1781599344078,384,-16156,3768,6,A
1781599344100,104,-15860,3836,6,A
1781599344121,8,-15664,4056,6,A
1781599344144,248,-15608,3772,6,A
1781599344165,376,-15568,3400,6,A
1781599344186,316,-15824,3424,6,A
1781599344208,-48,-15584,3588,6,A
1781599344230,-268,-15688,3504,6,A
1781599344251,-400,-15872,3784,6,A
1781599344272,-344,-15660,3840,6,A
1781599344294,-440,-15680,3712,6,A
1781599344315,-344,-15836,3644,6,A
1781599344338,-552,-16164,3884,6,A
1781599344359,-472,-16276,3716,6,A
1781599344381,-552,-16660,3572,6,A
1781599344403,-152,-17040,3120,6,A
1781599344424,-80,-16672,2980,6,A
1781599344445,-280,-16052,3096,6,A
1781599344468,-140,-15960,3068,6,A
1781599344489,-44,-15640,2852,6,A
1781599344511,-168,-15552,3156,6,A
1781599344533,-384,-15960,3332,6,A
1781599344555,-440,-16044,3448,6,A
1781599344576,-424,-15968,3396,6,A
1781599344596,-344,-16180,3376,6,A
1781599344619,-300,-16108,3296,6,A
1781599344640,-224,-15960,3156,6,A
1781599344662,-96,-16248,2872,6,A
1781599344683,-64,-16296,2824,6,A
1781599344705,-296,-16308,2996,6,A
1781599344727,-280,-15992,2784,6,A
1781599344748,-172,-15916,2828,6,A
1781599344770,-52,-15760,2652,6,A
1781599344791,-220,-15632,2636,6,A
1781599344813,-312,-15592,2824,6,A
1781599344835,-244,-16252,3332,6,A
1781599344857,-172,-16612,2948,6,A
1781599344878,-388,-16756,3232,6,A
1781599344899,-616,-16812,3448,6,A
1781599344921,-304,-16764,3380,6,A
1781599344943,80,-16708,2836,6,A
1781599344964,192,-16336,2520,6,A
1781599344986,404,-16388,2476,6,A
1781599345008,-20,-16256,2788,6,A
1781599345030,0,-16424,2824,6,A
1781599345051,-216,-16308,2568,6,A
1781599345072,-184,-16460,2856,6,A
1781599345094,-16,-15984,2568,6,A
1781599345115,44,-15788,2588,6,A
1781599345136,-84,-15696,2596,6,A
1781599345159,40,-15652,2476,6,A
1781599345181,-68,-16020,2316,6,A
1781599345201,80,-16264,2080,6,A
1781599345223,-36,-16328,2448,6,A
1781599345246,-104,-16068,2652,6,A
1781599345267,-396,-16156,2940,6,A
1781599345288,-268,-16056,2884,6,A
1781599345310,-100,-16404,2840,6,A
1781599345332,-172,-16180,2856,6,A
1781599345353,-196,-16452,2712,6,A
1781599345375,-204,-16256,2720,6,A
1781599345397,-168,-16396,2712,6,A
1781599345418,-172,-16380,2700,6,A
1781599345440,-184,-16428,2472,6,A
1781599345461,-96,-16168,2500,6,A
1781599345483,-440,-16016,2660,6,A
1781599345504,-328,-15964,2376,6,A
1781599345526,-284,-15792,2408,6,A
1781599345548,-308,-15496,2408,6,A
1781599345570,-168,-15388,2240,6,A
1781599345591,-288,-15436,2288,6,A
1781599345613,-540,-15404,2492,6,A
1781599345634,-488,-15400,2552,6,A
1781599345656,-444,-15680,2332,6,A
1781599345678,-416,-16152,2484,6,A
1781599345699,-232,-16208,2292,6,A
1781599345720,-148,-16084,2416,6,A
1781599345743,-400,-16132,2728,6,A
1781599345765,-324,-16400,2764,6,A
1781599345786,-356,-16680,2704,6,A
1781599345808,-436,-16656,2684,6,A
1781599345829,-484,-16660,2248,6,A
1781599345850,-144,-16680,2104,6,A
1781599345873,-12,-16256,1736,6,A
1781599345894,-220,-16040,1812,6,A
1781599345916,-416,-15764,1984,6,A
1781599345937,-448,-15960,2180,6,A
1781599345960,-596,-16284,2116,6,A
1781599345981,-564,-16308,1996,6,A
1781599346002,-528,-15764,2152,6,A
1781599346024,-772,-15724,2280,6,A
1781599346046,-724,-16012,2276,6,A
1781599346067,-428,-16144,1760,6,A
1781599346089,-336,-15972,1644,6,A
1781599346111,-716,-16284,2024,6,A
1781599346132,-696,-16288,1956,6,A
1781599346154,-632,-15960,1908,6,A
1781599346175,-808,-15244,1752,6,A
1781599346197,-1076,-13312,1108,6,A
1781599346219,-1524,-12024,1800,6,A
1781599346240,-80,-11268,1084,6,A
1781599346262,-556,-11636,2056,6,A
1781599346284,-1460,-13180,3748,6,A
1781599346305,-2560,-17780,5788,6,A
1781599346327,-3408,-22272,6672,6,A
1781599346348,-2124,-28376,4768,6,A
1781599346370,896,-32768,2916,6,A
1781599346391,1200,-26568,4788,6,A
1781599346414,-768,-23316,5908,6,A
1781599346435,-1924,-19816,6472,6,A
1781599346457,-1104,-17644,5280,6,A
1781599346478,-740,-14332,4152,6,A
1781599346500,-856,-11688,3280,6,A
1781599346521,-520,-9076,3504,6,A
1781599346543,244,-7668,2596,6,A
1781599346564,140,-5164,2376,6,A
1781599346586,-44,-2792,2756,6,A
1781599346607,-164,-2600,2868,6,A
1781599346629,600,-3224,2584,6,A
1781599346651,808,-5316,3172,6,A
1781599346672,376,-6540,4756,6,A
1781599346694,-1340,-7444,5580,6,A
1781599346716,-2640,-15584,8384,6,A
1781599346737,-2960,-26944,12424,6,A
1781599346758,252,-31124,7952,6,A
1781599346780,440,-32328,8688,6,A
1781599346802,-3120,-32328,11416,6,A
1781599346823,-3148,-27608,10232,6,A
1781599346846,-3784,-23968,10356,6,A
1781599346867,-5304,-21340,11144,6,A
1781599346889,-3836,-17956,8828,6,A
1781599346910,-2424,-16468,7080,6,A
1781599346932,-2084,-16004,6812,6,A
1781599346953,-652,-13744,4812,6,A
1781599346975,520,-9672,3408,6,A
1781599346997,376,-7276,4012,6,A
1781599347017,204,-5432,5068,6,A
1781599347039,-92,-4960,5864,6,A
1781599347062,240,-3500,5648,6,A
1781599347082,792,-528,4664,6,A
1781599347104,668,-320,5060,6,A
1781599347126,872,-1468,5924,6,A
1781599347147,1652,-4764,3976,6,A
1781599347169,2312,-10568,2076,6,A
1781599347191,16,-22052,6968,6,A
1781599347212,-2004,-29512,13980,6,A
1781599347234,264,-30324,13724,6,A
1781599347257,3032,-30992,12540,6,A
1781599347277,2736,-28764,13908,6,A
1781599347299,1724,-23028,13828,6,A
1781599347321,1224,-18820,12608,6,A
1781599347343,608,-17516,13116,6,A
1781599347364,1536,-16744,10832,6,A
1781599347385,2492,-16488,8708,6,A
1781599347407,3176,-16148,7336,6,A
1781599347428,4336,-12688,4168,6,A
1781599347451,4476,-8444,2964,6,A
1781599347471,3704,-5448,3368,6,A
1781599347494,3280,-4380,4540,6,A
1781599347515,3468,-3284,3912,6,A
1781599347536,4080,-2228,2688,6,A
1781599347557,4052,-388,1448,6,A
1781599347579,2872,-1604,3312,6,A
1781599347601,1636,-4268,5752,6,A
1781599347622,196,-7844,7664,6,A
1781599347644,884,-16076,7812,6,A
1781599347665,2672,-26768,10292,6,A
1781599347688,3740,-32768,13728,6,A
1781599347709,5444,-32204,14404,6,A
1781599347731,5968,-24800,10928,6,A
1781599347752,3692,-20740,11340,6,A
1781599347774,1904,-17692,12528,6,A
1781599347796,2232,-16516,11136,6,A
1781599347817,2116,-14932,10720,6,A
1781599347838,1932,-14408,9716,6,A
1781599347860,2232,-12108,7488,6,A
1781599347882,2796,-8212,5276,6,A
1781599347904,2612,-6420,4436,6,A
1781599347925,2616,-5424,4636,6,A
1781599347947,2656,-3636,3632,6,A
1781599347968,2856,-1500,2532,6,A
1781599347990,3008,-3064,2412,6,A
1781599348011,2188,-4856,3352,6,A
1781599348034,1980,-10572,4228,6,A
1781599348055,3476,-15504,3144,6,A
1781599348077,5248,-19416,2844,6,A
1781599348098,4664,-20844,4756,6,A
1781599348120,3308,-21228,6956,6,A
1781599348141,3036,-21060,6468,6,A
1781599348163,5636,-25456,2800,6,A
1781599348185,6744,-29224,3744,6,A
1781599348206,4536,-27004,5756,6,A
1781599348228,2680,-22824,6080,6,A
1781599348250,1260,-19996,5872,6,A
1781599348271,408,-18064,5228,6,A
1781599348292,72,-17052,4188,6,A
1781599348314,500,-15292,2772,6,A
1781599348336,988,-12580,1148,6,A
1781599348357,520,-11808,1048,6,A
1781599348379,-324,-11328,1160,6,A
1781599348401,2340,-10824,-1092,6,A
1781599348422,2140,-9792,-752,6,A
1781599348443,1812,-9044,-1652,6,A
1781599348466,2872,-8548,-1696,6,A
1781599348487,2024,-10816,-320,6,A
1781599348508,2216,-11884,-384,6,A
1781599348530,3280,-14468,-68,6,A
1781599348552,1388,-12916,364,6,A
1781599348573,996,-12540,1584,6,A
1781599348595,-344,-12652,3888,6,A
1781599348617,-1320,-12304,6028,6,A
1781599348638,-3748,-17448,9116,6,A
1781599348660,-4240,-23552,10204,6,A
1781599348681,1316,-26372,5176,6,A
1781599348703,3688,-29624,3276,6,A
1781599348725,5956,-27720,1288,6,A
1781599348747,4092,-24148,2268,6,A
1781599348768,3500,-19684,1940,6,A
1781599348790,2708,-16380,1664,6,A
1781599348811,1632,-15964,2100,6,A
1781599348833,1088,-15072,1636,6,A
1781599348854,1732,-13624,604,6,A
1781599348876,2176,-12560,104,6,A
1781599348897,1644,-11520,-80,6,A
1781599348919,840,-10396,1332,6,A
1781599348941,1260,-10132,-280,6,A
1781599348962,1640,-9324,772,6,A
1781599348985,1644,-8980,-8,6,A
1781599349005,612,-10436,1532,6,A
1781599349027,760,-13228,1572,6,A
1781599349050,2400,-13056,-544,6,A
1781599349072,2244,-15188,584,6,A
1781599349093,960,-18432,3200,6,A
1781599349115,1304,-21440,3476,6,A
1781599349137,3532,-22896,1976,6,A
1781599349158,3972,-21984,1560,6,A
1781599349180,1612,-20876,3864,6,A
1781599349201,-1276,-20264,7732,6,A
1781599349223,-348,-19264,5776,6,A
1781599349245,-228,-17812,5056,6,A
1781599349267,-1124,-17744,6620,6,A
1781599349288,-1264,-16544,6728,6,A
1781599349310,-300,-16476,4676,6,A
1781599349331,244,-16216,4492,6,A
1781599349353,824,-17164,3912,6,A
1781599349375,1096,-15628,3552,6,A
1781599349396,1780,-15820,3300,6,A
1781599349417,1468,-15180,2812,6,A
1781599349439,632,-13492,2108,6,A
1781599349461,792,-12308,1096,6,A
1781599349482,748,-11224,908,6,A
1781599349503,1300,-10320,-204,6,A
1781599349525,988,-11328,-148,6,A
1781599349547,1508,-12524,-496,6,A
1781599349568,1056,-12736,-928,6,A
1781599349590,404,-13788,456,6,A
1781599349612,-16,-13100,680,6,A
1781599349634,-244,-15640,1768,6,A
1781599349655,-1156,-18012,4648,6,A
1781599349677,196,-20792,4480,6,A
1781599349699,1852,-23220,4816,6,A
1781599349720,2252,-23288,6116,6,A
1781599349741,1672,-21300,6128,6,A
1781599349763,216,-19012,7416,6,A
1781599349785,-1092,-15984,6640,6,A
1781599349806,-1644,-14616,7144,6,A
1781599349828,-1672,-14708,6392,6,A
1781599349850,-340,-15848,5688,6,A
1781599349871,660,-15504,3192,6,A
1781599349894,124,-14924,3004,6,A
1781599349915,-1496,-14276,4968,6,A
1781599349937,-1684,-15044,5972,6,A
1781599349958,-1452,-16628,6016,6,A
1781599349979,-476,-16716,4688,6,A
1781599350001,480,-15840,2264,6,A
1781599350023,1024,-15208,1668,6,A
1781599350045,348,-15096,2984,6,A
1781599350066,-1120,-15004,4344,6,A
1781599350088,-520,-14644,3520,6,A
1781599350109,180,-14696,2332,6,A
1781599350131,-444,-14568,3864,6,A
1781599350152,-1264,-15780,5240,6,A
1781599350174,-1944,-16640,5608,6,A
1781599350195,-744,-16780,4128,6,A
1781599350217,632,-16136,1816,6,A
1781599350238,868,-15332,1528,6,A
1781599350260,432,-15632,1680,6,A
1781599350281,-72,-17692,2440,6,A
1781599350303,152,-18296,2304,6,A
1781599350325,932,-17240,1120,6,A
1781599350346,-188,-15620,1256,6,A
1781599350368,-956,-15704,2476,6,A
1781599350389,-424,-15736,1512,6,A
1781599350411,-444,-15460,1700,6,A
1781599350433,-660,-15832,1572,6,A
1781599350454,-232,-16972,1864,6,A
1781599350476,668,-18472,1736,6,A
1781599350497,-904,-18016,2416,6,A
1781599350519,-2352,-16976,2832,6,A
1781599350541,-2568,-15404,1840,6,A
1781599350562,-2420,-15416,1468,6,A
1781599350584,-1220,-15596,476,6,A
1781599350606,172,-14540,48,6,A
1781599350628,264,-13992,232,6,A
1781599350649,-656,-15244,1692,6,A
1781599350670,-724,-15084,2412,6,A
1781599350692,-592,-15816,3244,6,A
1781599350714,-1732,-14992,3088,6,A
1781599350736,-2336,-14352,3232,6,A
1781599350757,-3288,-16008,3436,6,A
1781599350779,-2900,-19764,3216,6,A
1781599350800,-1312,-20936,2772,6,A
1781599350822,-516,-20088,1460,6,A
1781599350844,-1624,-17372,1156,6,A
1781599350865,-1676,-14976,1408,6,A
1781599350887,-2008,-13196,1920,6,A
1781599350908,-1620,-12240,1624,6,A
1781599350930,-1664,-12720,2140,6,A
1781599350953,-1076,-13900,2496,6,A
1781599350973,-88,-15056,2156,6,A
1781599350995,500,-16040,1716,6,A
1781599351016,992,-16252,1648,6,A
1781599351038,1036,-17216,1468,6,A
1781599351059,1292,-18740,1444,6,A
1781599351081,1188,-18668,1644,6,A
1781599351103,-264,-18536,2620,6,A
1781599351125,-2608,-17824,3840,6,A
1781599351147,-3320,-17004,3908,6,A
1781599351168,-3344,-15768,4212,6,A
1781599351190,-3932,-14920,3224,6,A
1781599351211,-4800,-13408,3068,6,A
1781599351233,-2612,-14232,2332,6,A
1781599351254,-192,-14656,1452,6,A
1781599351276,1060,-14184,596,6,A
1781599351297,1176,-15120,888,6,A
1781599351319,596,-16816,1560,6,A
1781599351341,680,-18636,2060,6,A
1781599351362,908,-19972,1932,6,A
1781599351383,-556,-18572,1780,6,A
1781599351406,-1572,-16736,2192,6,A
1781599351427,-600,-15548,1216,6,A
1781599351448,-1408,-15864,1892,6,A
1781599351470,-2344,-16316,2132,6,A
1781599351492,-2424,-16212,1972,6,A
1781599351514,-1720,-16220,1448,6,A
1781599351536,-1248,-16152,1112,6,A
1781599351557,-1272,-15568,1000,6,A
1781599351578,-2060,-15624,1632,6,A
1781599351600,-1416,-15804,1108,6,A
1781599351622,-308,-15868,908,6,A
1781599351643,-72,-16032,1144,6,A
1781599351665,340,-16124,208,6,A
1781599351687,888,-16280,-184,6,A
1781599351708,620,-16640,360,6,A
1781599351729,496,-16696,180,6,A
1781599351751,468,-16752,-112,6,A
1781599351772,-16,-16552,80,6,A
1781599351794,-856,-16196,424,6,A
1781599351815,-1256,-15956,676,6,A
1781599351838,-1352,-15700,604,6,A
1781599351859,-1036,-15772,512,6,A
1781599351880,-588,-15656,424,6,A
1781599351902,-592,-15984,656,6,A
1781599351925,-772,-16304,580,6,A
1781599351945,-784,-16484,456,6,A
1781599351967,-1000,-16560,640,6,A
1781599351989,-572,-16980,196,6,A
1781599352010,-804,-16336,172,6,A
1781599352032,-760,-16060,-708,6,A
1781599352053,-2816,-17692,924,6,A
1781599352075,-3248,-17588,1448,6,A
1781599352097,-3004,-16900,524,6,A
1781599352118,-5312,-16644,1816,6,A
1781599352140,-6964,-15428,2744,6,A
1781599352162,-6088,-14544,2260,6,A
1781599352184,-5480,-13756,2320,6,A
1781599352205,-5276,-13476,2284,6,A
1781599352226,-4748,-13912,1536,6,A
1781599352248,-3852,-14356,2060,6,A
1781599352270,-1776,-15028,1116,6,A
1781599352291,-1064,-15160,-2408,6,A
1781599352314,-1668,-16116,1744,6,A
1781599352335,-3400,-15768,2316,6,A
1781599352356,-3772,-19524,3912,6,A
1781599352378,-2684,-19584,3756,6,A
1781599352400,-2852,-19644,3196,6,A
1781599352421,-4328,-17616,3596,6,A
1781599352443,-4420,-16012,2600,6,A
1781599352465,-4540,-14396,1884,6,A
1781599352486,-4824,-14204,1784,6,A
1781599352507,-5584,-14456,1324,6,A
1781599352530,-7248,-14700,3112,6,A
1781599352551,-8324,-14492,3552,6,A
1781599352573,-8932,-14680,2952,6,A
1781599352594,-9828,-14384,3696,6,A
1781599352616,-10628,-13112,3460,6,A
1781599352638,-12044,-11676,3588,6,A
1781599352660,-12444,-10504,4148,6,A
1781599352681,-10572,-10260,3484,6,A
1781599352703,-9228,-10684,4208,6,A
1781599352724,-9224,-11696,3792,6,A
1781599352746,-9860,-12484,4412,6,A
1781599352767,-9188,-12588,4112,6,A
1781599352789,-8044,-13296,4468,6,A
1781599352811,-7564,-14020,4736,6,A
1781599352832,-7032,-13064,3580,6,A
1781599352854,-7496,-14204,4300,6,A
1781599352876,-5624,-14432,3904,6,A
1781599352897,-3844,-14488,3124,6,A
1781599352919,-3244,-15076,2548,6,A
1781599352940,-1684,-16440,2580,6,A
1781599352963,-1692,-17700,3268,6,A
1781599352984,-1980,-18156,3236,6,A
1781599353006,-812,-17960,2292,6,A
1781599353027,-288,-17712,1532,6,A
1781599353049,-676,-17688,2320,6,A
1781599353071,-1208,-16736,2024,6,A
1781599353092,-1508,-15820,1140,6,A
1781599353114,-2520,-14880,1028,6,A
1781599353135,-2860,-14104,660,6,A
1781599353157,-2520,-14440,728,6,A
1781599353178,-584,-15872,496,6,A
1781599353200,136,-15816,612,6,A
1781599353221,752,-15120,652,6,A
1781599353244,1436,-14144,328,6,A
1781599353265,1564,-13404,368,6,A
1781599353286,2280,-14920,16,6,A
1781599353308,3188,-16572,1636,6,A
1781599353330,4292,-19028,2284,6,A
1781599353351,2716,-20904,3460,6,A
1781599353373,-1268,-21048,5412,6,A
1781599353395,-4760,-20780,7008,6,A
1781599353416,-4784,-18940,6736,6,A
1781599353439,-4008,-17048,5232,6,A
1781599353460,-3660,-15968,4560,6,A
1781599353481,-3368,-15672,4084,6,A
1781599353503,-4136,-15232,4068,6,A
1781599353524,-5532,-14660,1708,6,A
1781599353546,-4096,-15584,1860,6,A
1781599353567,-2096,-16372,1816,6,A
1781599353590,-1488,-16328,1744,6,A
1781599353611,-1080,-15408,1776,6,A
1781599353632,-360,-14252,1036,6,A
1781599353653,236,-13960,1576,6,A
1781599353675,576,-13588,1688,6,A
1781599353697,748,-14256,1584,6,A
1781599353719,1748,-15636,2040,6,A
1781599353741,2748,-15696,2300,6,A
1781599353762,2988,-15692,2076,6,A
1781599353784,3448,-15184,2604,6,A
1781599353805,3708,-15272,3652,6,A
1781599353827,4084,-15536,4420,6,A
1781599353848,4268,-15732,4680,6,A
1781599353870,4640,-15960,4484,6,A
1781599353892,3372,-15560,5952,6,A
1781599353914,3312,-15020,6392,6,A
1781599353936,4476,-14440,6616,6,A
1781599353957,5316,-14892,6416,6,A
1781599353979,5332,-14676,8356,6,A
1781599354000,4760,-14776,9080,6,A
1781599354022,4628,-14800,9436,6,A
1781599354044,4088,-15900,8368,6,A
1781599354065,3552,-15448,8288,6,A
1781599354086,4228,-14164,7272,6,A
1781599354108,5260,-13160,9108,6,A
1781599354129,5416,-11296,8904,6,A
1781599354151,3900,-10380,7820,6,A
1781599354174,3108,-9744,7908,6,A
1781599354194,1164,-11840,7812,6,A
1781599354217,-1184,-13184,6992,6,A
1781599354238,-2080,-15284,8596,6,A
1781599354260,156,-16304,7992,6,A
1781599354281,1196,-16888,8804,6,A
1781599354303,1084,-16464,9052,6,A
1781599354324,-2260,-15692,7560,6,A
1781599354346,-5704,-14704,5720,6,A
1781599354367,-5048,-14296,5108,6,A
1781599354390,-1892,-14792,3744,6,A
1781599354411,-456,-13996,4316,6,A
1781599354433,-1172,-13820,4852,6,A
1781599354454,-1348,-14452,4108,6,A
1781599354475,160,-16336,5284,6,A
1781599354497,1764,-16532,4840,6,A
1781599354520,3036,-16836,4028,6,A
1781599354540,3204,-18296,4712,6,A
1781599354562,4952,-18080,3164,6,A
1781599354585,8268,-19420,4024,6,A
1781599354605,9464,-21344,1392,6,A
1781599354627,7772,-23256,3108,6,A
1781599354649,6028,-25732,5028,6,A
1781599354671,8076,-29004,6776,6,A
1781599354693,11196,-20532,-2604,6,A
1781599354714,7232,-21292,1992,6,A
1781599354736,4780,-17592,1756,6,A
1781599354759,3560,-11100,420,6,A
1781599354780,3092,-6972,300,6,A
1781599354801,2736,-3904,-948,6,A
1781599354823,3392,-56,-1884,6,A
1781599354844,3824,304,-1548,6,A
1781599354866,3160,1088,-624,6,A
1781599354888,1556,3176,-1160,6,A
1781599354909,-872,2316,-1576,6,A
1781599354931,-1844,-2084,-2964,6,A
1781599354953,-1956,-13272,-4960,6,A
1781599354974,920,-32768,4592,6,A
1781599354996,5016,-32768,17704,6,A
1781599355018,7612,-32768,12208,6,A
1781599355039,3820,-26648,5480,6,A
1781599355061,732,-21272,8568,6,A
1781599355083,-584,-17744,11468,6,A
1781599355104,-1060,-14380,9116,6,A
1781599355126,-772,-11428,6536,6,A
1781599355147,-380,-9892,6024,6,A
1781599355168,-676,-9096,6028,6,A
1781599355190,-528,-8944,5888,6,A
1781599355211,660,-10848,5556,6,A
1781599355233,1220,-12772,5520,6,A
1781599355255,1800,-13440,6236,6,A
1781599355277,840,-12128,7068,6,A
1781599355298,544,-11692,6984,6,A
1781599355320,-1828,-12928,3648,6,A
1781599355341,-2576,-15224,5116,6,A
1781599355362,-2912,-16168,9388,6,A
1781599355384,-1340,-17112,9152,6,A
1781599355406,824,-16456,4980,6,A
1781599355427,2420,-15224,2020,6,A
1781599355449,3740,-15156,1628,6,A
1781599355471,3160,-14028,1212,6,A
1781599355493,236,-15516,-1836,6,A
1781599355514,1600,-20172,508,6,A
1781599355535,1500,-20412,1608,6,A
1781599355558,2384,-19492,-1784,6,A
1781599355579,3084,-19548,-4856,6,A
1781599355600,4948,-18516,-6432,6,A
1781599355622,6396,-16712,-6992,6,A
1781599355644,6628,-14396,-7804,6,A
1781599355666,6384,-12576,-9792,6,A
1781599355687,6712,-14500,-8372,6,A
1781599355709,5700,-14824,-5108,6,A
1781599355730,4888,-15168,-4868,6,A
1781599355751,4696,-14024,-6628,6,A
1781599355773,2900,-13468,-6036,6,A
1781599355795,2688,-14508,-6472,6,A
1781599355817,3300,-16792,-4296,6,A
1781599355838,3192,-19144,-1736,6,A
1781599355860,1144,-20704,-16,6,A
1781599355881,376,-18684,616,6,A
1781599355902,296,-17132,16,6,A
1781599355924,-1012,-16188,-272,6,A
1781599355947,-3168,-15852,128,6,A
1781599355968,-3444,-16940,-84,6,A
1781599355989,-2852,-17688,-136,6,A
1781599356011,-1880,-18904,48,6,A
1781599356032,-752,-19284,-120,6,A
1781599356054,120,-18472,-768,6,A
1781599356077,60,-18964,-1524,6,A
1781599356098,-732,-16876,-1496,6,A
1781599356120,-112,-15132,-2628,6,A
1781599356141,1068,-14088,-3420,6,A
1781599356163,1092,-13864,-2368,6,A
1781599356184,-140,-14340,-436,6,A
1781599356206,-1096,-14812,348,6,A
1781599356227,-1340,-15028,332,6,A
1781599356249,-1412,-16444,500,6,A
1781599356271,-2452,-17428,280,6,A
1781599356293,-2436,-18068,-424,6,A
1781599356314,-364,-19304,-552,6,A
1781599356335,1732,-19748,168,6,A
1781599356357,2304,-19224,396,6,A
1781599356379,964,-17796,404,6,A
1781599356400,-1120,-16896,900,6,A
1781599356422,-2696,-15224,888,6,A
1781599356443,-3104,-13916,532,6,A
1781599356464,-2168,-12824,236,6,A
1781599356486,-1864,-12720,1204,6,A
1781599356508,-1648,-13520,2448,6,A
1781599356530,-1144,-14744,3412,6,A
1781599356551,-1624,-15708,3864,6,A
1781599356572,-1964,-16300,4020,6,A
1781599356595,-3528,-17584,4884,6,A
1781599356616,-5292,-19176,6616,6,A
1781599356639,-7792,-19352,7472,6,A
1781599356660,-9088,-17152,6260,6,A
1781599356681,-9016,-15064,3756,6,A
1781599356702,-8480,-13444,2456,6,A
1781599356724,-8432,-11880,1772,6,A
1781599356746,-8368,-11212,1968,6,A
1781599356768,-7540,-10872,2368,6,A
1781599356789,-6484,-10372,2280,6,A
1781599356812,-6172,-10520,3196,6,A
1781599356832,-6116,-10564,4216,6,A
1781599356853,-5852,-10448,5016,6,A
1781599356875,-6368,-10460,5956,6,A
1781599356897,-6284,-11460,6908,6,A
1781599356919,-5808,-12916,8268,6,A
1781599356941,-5728,-13688,9248,6,A
1781599356962,-5060,-14552,8804,6,A
1781599356984,-4336,-15880,9728,6,A
1781599357005,-3232,-16144,9944,6,A
1781599357027,-2192,-16576,9120,6,A
1781599357049,-4480,-16360,9684,6,A
1781599357070,-6456,-16020,9828,6,A
1781599357092,-7828,-14784,10356,6,A
1781599357114,-8616,-13516,9952,6,A
1781599357135,-9268,-12584,9364,6,A
1781599357157,-10440,-11332,9340,6,A
1781599357178,-11112,-10304,8844,6,A
1781599357200,-11056,-9884,8216,6,A
1781599357221,-10784,-9704,7756,6,A
1781599357243,-10104,-10104,7012,6,A
1781599357265,-9348,-10752,6760,6,A
1781599357287,-9332,-11420,7188,6,A
1781599357309,-9144,-12060,6912,6,A
1781599357330,-8712,-12480,6760,6,A
1781599357351,-8652,-12908,6792,6,A
1781599357373,-7736,-13092,6364,6,A
1781599357394,-6424,-12948,5784,6,A
1781599357416,-4936,-12120,4984,6,A
1781599357438,-4688,-11228,4188,6,A
1781599357459,-4164,-11236,3780,6,A
1781599357481,-3124,-12908,4520,6,A
1781599357502,-2544,-14284,4920,6,A
1781599357525,-1860,-16308,5948,6,A
1781599357545,-216,-17656,5956,6,A
1781599357567,1512,-18244,5800,6,A
1781599357589,1956,-18044,5500,6,A
1781599357611,1556,-17476,5332,6,A
1781599357632,208,-16488,5168,6,A
1781599357654,-2032,-15296,5640,6,A
1781599357675,-2824,-14744,6492,6,A
1781599357697,-3808,-13384,7212,6,A
1781599357719,-5196,-12172,8292,6,A
1781599357740,-7932,-11932,10560,6,A
1781599357762,-9856,-11700,11980,6,A
1781599357784,-7796,-11828,10548,6,A
1781599357805,-4112,-13184,9144,6,A
1781599357827,-5400,-13996,9384,6,A
1781599357848,-4044,-14860,9480,6,A
1781599357870,-4148,-14504,9392,6,A
1781599357892,-3800,-13788,8464,6,A
1781599357914,-3616,-13140,7816,6,A
1781599357935,-3816,-12052,7388,6,A
1781599357957,-3316,-12500,6524,6,A
1781599357979,-2860,-13088,6292,6,A
1781599358001,-2080,-13852,6632,6,A
1781599358022,-156,-15040,6296,6,A
1781599358043,980,-15584,6236,6,A
1781599358065,1784,-16232,6788,6,A
1781599358086,2272,-15840,6992,6,A
1781599358108,1852,-15364,7748,6,A
1781599358129,1068,-14324,7460,6,A
1781599358151,848,-13892,7472,6,A
1781599358173,924,-13988,7908,6,A
1781599358194,544,-14060,8536,6,A
1781599358217,284,-14276,8280,6,A
1781599358237,304,-14696,8416,6,A
1781599358259,604,-14896,8476,6,A
1781599358281,540,-15184,8644,6,A
1781599358301,348,-14608,8452,6,A
1781599358323,36,-14100,8644,6,A
1781599358345,-868,-13504,9312,6,A
1781599358367,-1192,-13312,9932,6,A
1781599358390,-1784,-13020,10016,6,A
1781599358410,-2196,-12696,10756,6,A
1781599358431,-2728,-12592,11128,6,A
1781599358454,-2312,-12828,10308,6,A
1781599358475,-928,-13952,9088,6,A
1781599358496,-716,-14148,9752,6,A
1781599358518,-1448,-13896,9800,6,A
1781599358539,-1908,-13728,9172,6,A
1781599358561,-1412,-13724,8824,6,A
1781599358583,-1148,-13992,8872,6,A
1781599358605,-256,-14164,8900,6,A
1781599358626,24,-14228,8532,6,A
1781599358647,12,-13776,7656,6,A
1781599358668,256,-13984,7504,6,A
1781599358691,428,-14020,7416,6,A
1781599358712,632,-13564,6832,6,A
1781599358735,704,-13216,6644,6,A
1781599358755,1156,-12812,6468,6,A
1781599358777,1236,-12328,6200,6,A
1781599358799,720,-11856,6388,6,A
1781599358820,172,-11552,6524,6,A
1781599358843,-248,-12068,7244,6,A
1781599358864,-1252,-13728,8072,6,A
1781599358885,-932,-15624,8792,6,A
1781599358906,564,-17864,9632,6,A
1781599358929,1012,-18552,8100,6,A
1781599358950,256,-18984,7400,6,A
1781599358971,-32,-19212,6776,6,A
1781599358993,668,-19200,6428,6,A
1781599359015,1436,-18600,5900,6,A
1781599359036,576,-17428,5420,6,A
1781599359058,-644,-16304,5108,6,A
1781599359080,-1052,-15488,4368,6,A
1781599359101,-1376,-15144,3768,6,A
1781599359123,-1140,-15752,3764,6,A
1781599359144,-1120,-16644,4076,6,A
1781599359166,-380,-17196,3780,6,A
1781599359187,1540,-17516,2724,6,A
1781599359209,2300,-17036,1632,6,A
1781599359231,1188,-17508,1980,6,A
1781599359252,-488,-16716,1632,6,A
1781599359274,-220,-15456,288,6,A
1781599359296,-1252,-15228,588,6,A
1781599359316,-2272,-14628,980,6,A
1781599359339,-1624,-14036,888,6,A
1781599359360,-1920,-14404,2388,6,A
1781599359382,-2764,-14820,3788,6,A
1781599359404,-3320,-14660,3964,6,A
1781599359425,-2600,-14740,4028,6,A
1781599359447,-3252,-15088,4696,6,A
1781599359468,-3564,-15976,4656,6,A
1781599359490,-4376,-14952,5628,6,A
1781599359512,-4568,-14940,5260,6,A
1781599359534,-4836,-14916,5560,6,A
1781599359554,-4896,-15028,5824,6,A
1781599359576,-5156,-14936,6156,6,A
1781599359598,-5000,-14744,6228,6,A
1781599359619,-4796,-14768,6248,6,A
1781599359641,-4012,-14720,6248,6,A
1781599359663,-3300,-14720,5944,6,A
1781599359685,-2780,-14632,5632,6,A
1781599359706,-2296,-14540,5076,6,A
1781599359728,-1880,-14888,5244,6,A
1781599359749,-1420,-15376,5304,6,A
1781599359771,-1032,-15756,5536,6,A
1781599359792,-1100,-16204,5864,6,A
1781599359814,-1000,-16392,5852,6,A
1781599359836,-1260,-16360,6300,6,A
1781599359858,-1340,-16196,6112,6,A
1781599359879,-1464,-15872,5700,6,A
1781599359900,-1328,-15576,5432,6,A
1781599359922,-1064,-15408,4688,6,A
1781599359945,-1076,-15660,5052,6,A
1781599359966,-780,-15884,5488,6,A
1781599359988,-868,-15764,5508,6,A
1781599360009,-1368,-15572,5652,6,A
1781599360031,-1608,-15300,5840,6,A
1781599360052,-2076,-15196,5460,6,A
1781599360074,-2264,-15064,5412,6,A
1781599360096,-2004,-15376,5632,6,A
1781599360117,-1452,-15436,5268,6,A
1781599360139,-1600,-15324,5176,6,A
1781599360160,-1560,-15404,5220,6,A
1781599360182,-1368,-15648,4572,6,A
1781599360203,-936,-15608,5744,6,A
1781599360226,-1060,-15092,5992,6,A
1781599360247,-360,-14260,5772,6,A
1781599360269,-612,-14412,6332,6,A
1781599360290,-336,-14612,6248,6,A
1781599360311,456,-14476,6764,6,A
1781599360334,636,-15164,7396,6,A
1781599360355,1396,-15168,7516,6,A
1781599360377,1652,-15584,7156,6,A
1781599360399,1356,-15628,7612,6,A
1781599360421,1656,-15264,6548,6,A
1781599360443,1380,-15060,6824,6,A
1781599360465,920,-14796,7096,6,A
1781599360486,1108,-14676,6868,6,A
1781599360508,520,-13936,6388,6,A
1781599360529,1312,-14864,6820,6,A
1781599360551,1336,-15000,6744,6,A
1781599360573,1864,-14960,7112,6,A
1781599360594,1648,-14960,7164,6,A
1781599360616,1692,-14932,7056,6,A
1781599360637,1896,-14680,6480,6,A
1781599360659,1740,-14528,6948,6,A
1781599360681,1236,-14348,7092,6,A
1781599360703,1420,-14072,7020,6,A
1781599360724,1780,-13964,6984,6,A
1781599360746,2188,-13952,6972,6,A
1781599360768,2996,-14292,7064,6,A
1781599360789,3164,-14260,7484,6,A
1781599360811,3452,-14888,7500,6,A
1781599360832,3212,-15352,7712,6,A
1781599360853,2624,-15420,7760,6,A
1781599360876,2284,-15456,7460,6,A
1781599360897,1860,-15276,7068,6,A
1781599360919,1564,-14872,6508,6,A
1781599360940,1396,-14584,6164,6,A
1781599360962,1328,-14840,6200,6,A
1781599360984,1460,-14744,6028,6,A
1781599361005,1408,-15016,6132,6,A
1781599361027,1260,-14980,6332,6,A
1781599361048,1400,-14976,6128,6,A
1781599361071,1248,-14868,6096,6,A
1781599361093,1340,-14816,6284,6,A
1781599361113,1436,-14884,6260,6,A
1781599361136,1484,-15020,6208,6,A
1781599361156,2004,-14916,6120,6,A
1781599361178,2152,-15012,6188,6,A
1781599361200,2160,-15096,6236,6,A
1781599361221,2372,-15012,6068,6,A
1781599361244,2532,-15136,6424,6,A
1781599361265,2688,-15092,6432,6,A
1781599361287,2828,-15100,6480,6,A
1781599361308,2496,-15168,6604,6,A
1781599361330,2436,-15148,6524,6,A
1781599361351,2652,-15392,6708,6,A
1781599361373,2552,-15344,6656,6,A
1781599361395,2216,-15048,6372,6,A
1781599361417,1908,-14912,6056,6,A
1781599361438,1956,-15000,6032,6,A
1781599361459,2144,-15288,6336,6,A
1781599361481,2200,-15664,6548,6,A
1781599361503,2400,-16384,7204,6,A
1781599361525,2012,-17512,9176,6,A
1781599361547,2216,-18520,9244,6,A
1781599361568,4468,-18056,8488,6,A
1781599361589,7060,-18692,7300,6,A
1781599361612,6236,-20020,7884,6,A
1781599361632,3764,-20208,9688,6,A
1781599361655,3252,-18352,7660,6,A
1781599361676,3120,-15848,5528,6,A
1781599361698,2188,-14596,4536,6,A
1781599361719,688,-13020,4224,6,A
1781599361740,776,-11996,3244,6,A
1781599361763,2056,-12048,1640,6,A
1781599361784,3456,-12676,2548,6,A
1781599361806,3752,-12940,1960,6,A
1781599361827,3440,-13612,1996,6,A
1781599361849,4360,-13972,212,6,A
1781599361870,5072,-13912,32,6,A
1781599361892,4312,-13592,1064,6,A
1781599361913,2752,-12436,1676,6,A
1781599361936,1832,-12580,3488,6,A
1781599361957,2112,-11860,4896,6,A
1781599361979,3168,-12204,4296,6,A
1781599362001,2824,-12968,4800,6,A
1781599362021,2192,-13584,5512,6,A
1781599362044,2924,-14184,5292,6,A
1781599362066,4756,-15052,4292,6,A
1781599362086,5636,-16456,4500,6,A
1781599362109,4856,-17444,5496,6,A
1781599362130,4524,-15900,5212,6,A
1781599362152,4056,-15392,4668,6,A
1781599362174,3740,-15296,5136,6,A
1781599362195,4104,-15180,4840,6,A
1781599362217,3752,-15012,5440,6,A
1781599362238,1908,-14724,6532,6,A
1781599362260,860,-14500,7100,6,A
1781599362281,1248,-14436,6764,6,A
1781599362303,2588,-15072,5848,6,A
1781599362325,3520,-15724,5600,6,A
1781599362346,3932,-16144,5416,6,A
1781599362368,4316,-16304,4772,6,A
1781599362389,4500,-16640,4600,6,A
1781599362412,4536,-16452,4368,6,A
1781599362433,4308,-15788,3716,6,A
1781599362455,3620,-15700,4024,6,A
1781599362476,3112,-15280,4292,6,A
1781599362498,3532,-14536,3544,6,A
1781599362520,3316,-14292,3524,6,A
1781599362541,2896,-14384,4304,6,A
1781599362562,1924,-14612,5460,6,A
1781599362585,1860,-14828,5364,6,A
1781599362606,2236,-15104,5456,6,A
1781599362627,2564,-15664,5528,6,A
1781599362649,2472,-16064,5888,6,A
1781599362670,2540,-15884,5560,6,A
1781599362692,2580,-15732,5392,6,A
1781599362714,2980,-15540,5228,6,A
1781599362735,3040,-15300,5236,6,A
1781599362757,2360,-15032,5444,6,A
1781599362779,1808,-14704,5396,6,A
1781599362801,2316,-14308,5108,6,A
1781599362823,2772,-14480,5224,6,A
1781599362844,2996,-14448,5128,6,A
1781599362865,2956,-14328,4876,6,A
1781599362887,2952,-14540,4728,6,A
1781599362909,2968,-15012,4852,6,A
1781599362930,3024,-15464,5084,6,A
1781599362952,3312,-15628,4932,6,A
1781599362973,3072,-15860,5044,6,A
1781599362995,2948,-16040,5208,6,A
1781599363017,2976,-16128,5168,6,A
1781599363039,2864,-16400,5508,6,A
1781599363060,2048,-16136,5732,6,A
1781599363081,1688,-16008,5452,6,A
1781599363103,1544,-15924,5424,6,A
1781599363126,1600,-15676,5128,6,A
1781599363147,1592,-15524,4804,6,A
1781599363168,1516,-14896,4436,6,A
1781599363191,1268,-15476,4516,6,A
1781599363211,1160,-15456,4148,6,A
1781599363234,1680,-15324,3996,6,A
1781599363255,1628,-15408,3932,6,A
1781599363276,1476,-15448,4224,6,A
1781599363299,1148,-15472,4348,6,A
1781599363320,1356,-15460,4476,6,A
1781599363341,1408,-15260,4616,6,A
1781599363364,1276,-15060,4548,6,A
1781599363385,1512,-15208,4396,6,A
1781599363406,1880,-15544,4424,6,A
1781599363428,2132,-15648,4180,6,A
1781599363449,2368,-15720,4116,6,A
1781599363471,2120,-15908,4136,6,A
1781599363492,2348,-15912,4148,6,A
1781599363514,2312,-15928,4136,6,A
1781599363537,2024,-16008,4272,6,A
1781599363558,1832,-15952,4284,6,A
1781599363579,1540,-15972,4336,6,A
1781599363601,1336,-15688,4572,6,A
1781599363623,1040,-15604,4420,6,A
1781599363644,836,-15436,4248,6,A
1781599363666,744,-15404,4348,6,A
1781599363687,900,-15672,4316,6,A
1781599363709,1152,-15940,4100,6,A
1781599363730,1548,-15892,4112,6,A
1781599363752,1684,-15792,3824,6,A
1781599363774,1336,-15540,3836,6,A
1781599363795,1404,-15368,3744,6,A
1781599363818,1632,-15648,3416,6,A
1781599363839,2056,-15888,3492,6,A
1781599363860,2068,-16140,3504,6,A
1781599363881,1904,-16016,3400,6,A
1781599363904,1984,-15896,3144,6,A
1781599363925,2368,-15688,2884,6,A
1781599363947,2300,-15868,3004,6,A
1781599363969,1932,-16152,3516,6,A
1781599363990,2104,-16112,3280,6,A
1781599364012,1904,-15924,3204,6,A
1781599364033,1664,-16068,3264,6,A
1781599364055,1836,-15928,3012,6,A
1781599364077,1608,-16168,3320,6,A
1781599364099,1224,-16076,3292,6,A
1781599364120,1092,-16028,3272,6,A
1781599364142,1316,-16076,3328,6,A
1781599364164,1408,-15812,3152,6,A
1781599364185,896,-15652,3400,6,A
1781599364207,980,-15524,3168,6,A
1781599364228,1372,-15816,2980,6,A
1781599364249,1944,-16200,2656,6,A
1781599364271,1620,-15972,3240,6,A
1781599364293,1652,-15980,2944,6,A
1781599364315,1840,-15884,2920,6,A
1781599364336,1968,-16072,2672,6,A
1781599364358,1892,-15980,2704,6,A
1781599364379,1524,-16144,3032,6,A
1781599364401,1664,-15948,2700,6,A
1781599364423,1544,-15932,2756,6,A
1781599364444,1480,-15904,2784,6,A
1781599364467,1732,-15884,2712,6,A
1781599364487,1568,-16108,2900,6,A
1781599364509,1200,-15896,2916,6,A
1781599364531,1112,-15764,2852,6,A
1781599364552,1036,-16020,2956,6,A
1781599364574,1728,-15924,2480,6,A
1781599364595,1788,-16228,2628,6,A
1781599364617,1536,-16116,2752,6,A
1781599364639,1152,-15776,2856,6,A
1781599364661,928,-15556,2716,6,A
1781599364682,1060,-15936,2860,6,A
1781599364705,1412,-16028,2736,6,A
1781599364725,1512,-16080,2668,6,A
1781599364747,1208,-16100,2584,6,A
1781599364769,1016,-15812,2584,6,A
1781599364790,1316,-15908,2268,6,A
1781599364812,1852,-16656,2204,6,A
1781599364833,1732,-16584,2448,6,A
1781599364855,1032,-15764,2500,6,A
1781599364877,672,-15484,2396,6,A
1781599364898,1472,-15948,2112,6,A
1781599364920,2136,-16468,2108,6,A
1781599364941,1252,-16212,2132,6,A
1781599364964,892,-15672,2108,6,A
1781599364985,1312,-15620,1780,6,A
1781599365007,1348,-16688,2156,6,A
1781599365028,668,-16352,2320,6,A
1781599365050,-312,-15636,2496,6,A
1781599365071,-12,-17036,3440,6,A
1781599365093,1260,-15568,2172,6,A
1781599365115,-76,-16208,2992,6,A
1781599365136,688,-15964,2292,6,A
1781599365158,276,-15384,2220,6,A
1781599365180,800,-15040,1820,6,A
1781599365201,1076,-15344,2088,6,A
1781599365222,1100,-13824,1828,6,A
1781599365244,304,-14872,2612,6,A
1781599365266,-2344,-15380,3960,6,A
1781599365287,-1996,-15080,4320,6,A
1781599365309,1096,-15072,2876,6,A
1781599365331,2756,-15400,3248,6,A
1781599365353,2084,-11984,6740,6,A
1781599365374,80,-16188,1988,6,A
1781599365395,-884,-18684,1476,6,A
1781599365418,1712,-16796,-28,6,A
1781599365439,3244,-15900,680,6,A
1781599365460,2620,-19236,-592,6,A
1781599365482,3304,-22924,2284,6,A
1781599365504,7656,-22688,-2892,6,A
1781599365525,10600,-24392,-4088,6,A
1781599365547,9332,-21240,6656,6,A
1781599365568,8036,-19428,56,6,A
1781599365590,7108,-16192,-516,6,A
1781599365611,2968,-15728,1068,6,A
1781599365633,-972,-21596,6828,6,A
1781599365655,-1224,-20300,7364,6,A
1781599365676,852,-21052,8632,6,A
1781599365698,-872,-18656,9716,6,A
1781599365720,-2948,-13608,9084,6,A
1781599365741,-3444,-9660,7596,6,A
1781599365763,-3560,-7796,6320,6,A
1781599365785,-2908,-6484,5632,6,A
1781599365806,-2040,-5208,4052,6,A
1781599365828,-904,-3960,2768,6,A
1781599365849,-208,-2688,1176,6,A
1781599365871,656,-3256,-540,6,A
1781599365892,996,-7788,-892,6,A
1781599365914,424,-20252,5832,6,A
1781599365937,68,-25232,10188,6,A
1781599365957,2744,-22304,7876,6,A
1781599365979,2480,-19800,6504,6,A
1781599366001,-2380,-19180,9824,6,A
1781599366023,-5068,-17028,11544,6,A
1781599366044,-4708,-14000,9920,6,A
1781599366067,-4884,-14292,10524,6,A
1781599366089,-5164,-13240,9224,6,A
1781599366111,-2680,-17028,9340,6,A
1781599366132,-3052,-16112,8968,6,A
1781599366154,-4712,-15236,8368,6,A
1781599366175,-6840,-13936,9364,6,A
1781599366197,-5764,-12068,8664,6,A
1781599366219,-4420,-12472,7756,6,A
1781599366240,-4456,-11256,6608,6,A
1781599366262,-6536,-7980,6732,6,A
1781599366283,-9152,-9516,8896,6,A
1781599366305,-10184,-8904,8764,6,A
1781599366326,-9316,-9296,8284,6,A
1781599366348,-8892,-7896,7880,6,A
1781599366370,-10744,-8548,7328,6,A
1781599366392,-11892,-10052,7604,6,A
1781599366413,-12136,-9180,8488,6,A
1781599366436,-11260,-8712,8596,6,A
1781599366457,-11192,-10208,7588,6,A
1781599366478,-11276,-10564,7488,6,A
1781599366500,-10660,-10108,7792,6,A
1781599366521,-10532,-8892,6168,6,A
1781599366543,-10360,-6244,4892,6,A
1781599366564,-13288,-7956,8292,6,A
1781599366587,-4168,-6388,7412,6,A
1781599366608,-18348,-916,6948,6,A
1781599366629,-15448,-3848,7180,6,A
1781599366652,-13456,-9544,5396,6,A
1781599366673,-13368,-10664,4692,6,A
1781599366695,-14872,-9736,3264,6,A
1781599366716,-15772,-9132,3372,6,A
1781599366738,-14524,-8044,3708,6,A
1781599366759,-15244,-6280,5208,6,A
1781599366781,-15820,-13576,872,6,A
1781599366803,-10632,-11064,2464,6,A
1781599366824,-14084,-9320,3164,6,A
1781599366845,-13012,-6692,2576,6,A
1781599366867,-12548,-13284,8136,6,A
1781599366889,-14916,-8556,3180,6,A
1781599366911,-13708,-4984,3124,6,A
1781599366933,-13900,-5088,4520,6,A
1781599366955,-15664,-8388,-464,6,A
1781599366976,-14780,-6060,2956,6,A
1781599366998,-19860,-5640,6596,6,A
1781599367019,-14208,-6688,-24,6,A
1781599367041,-12808,-7604,3064,6,A
1781599367062,-13496,-10588,3340,6,A
1781599367085,-13244,-10112,1516,6,A
1781599367106,-15552,-9192,2756,6,A
1781599367128,-16528,-5964,3996,6,A
1781599367149,-14920,-4608,3608,6,A
1781599367170,-13700,-3976,3540,6,A
1781599367192,-14104,-5400,2684,6,A
1781599367214,-15780,-6200,2884,6,A
1781599367235,-14984,-7112,3320,6,A
1781599367257,-14220,-6368,3084,6,A
1781599367279,-14536,-5844,3696,6,A
1781599367300,-14972,-5092,3852,6,A
1781599367322,-15180,-5276,4352,6,A
1781599367344,-15160,-5068,4252,6,A
1781599367366,-15512,-5488,3612,6,A
1781599367387,-15500,-6088,3136,6,A
1781599367409,-15104,-5700,2824,6,A
1781599367430,-14744,-5304,3228,6,A
1781599367451,-14636,-4468,4260,6,A
1781599367473,-14124,-3984,3704,6,A
1781599367496,-14672,-4620,3672,6,A
1781599367517,-15688,-5252,3224,6,A
1781599367538,-15992,-5964,3320,6,A
1781599367560,-15912,-6196,4468,6,A
1781599367581,-15416,-5872,5036,6,A
1781599367604,-14768,-4852,4652,6,A
1781599367625,-14804,-4404,4684,6,A
1781599367647,-15628,-4132,5976,6,A
1781599367668,-15476,-3268,4196,6,A
1781599367690,-16364,-4400,3504,6,A
1781599367711,-17440,-5764,2964,6,A
1781599367733,-16612,-7084,2132,6,A
1781599367755,-15664,-6948,4100,6,A
1781599367776,-14692,-4872,3768,6,A
1781599367799,-14524,-3816,3796,6,A
1781599367820,-15268,-3748,3472,6,A
1781599367842,-15380,-4080,3536,6,A
1781599367863,-15208,-5136,2928,6,A
1781599367885,-15128,-6116,2408,6,A
1781599367906,-15396,-6220,2252,6,A
1781599367928,-15564,-5712,2704,6,A
1781599367949,-15720,-4480,3772,6,A
1781599367971,-15600,-3588,3680,6,A
1781599367993,-16024,-3736,3640,6,A
1781599368014,-16356,-4508,3612,6,A
1781599368036,-16112,-5396,3428,6,A
1781599368059,-15520,-5672,3280,6,A
1781599368079,-15276,-5448,2940,6,A
1781599368101,-15548,-5012,2996,6,A
1781599368123,-15508,-4764,3208,6,A
1781599368144,-15108,-4624,3200,6,A
1781599368165,-14832,-4172,3816,6,A
1781599368188,-14936,-4516,3708,6,A
1781599368210,-15916,-5208,3212,6,A
1781599368231,-16344,-5272,4112,6,A
1781599368252,-15012,-4792,4472,6,A
1781599368274,-14204,-4284,4748,6,A
1781599368296,-14340,-3664,4628,6,A
1781599368317,-15244,-3504,4028,6,A
1781599368339,-16040,-3996,3732,6,A
1781599368361,-16160,-4812,3176,6,A
1781599368382,-16112,-5672,3700,6,A
1781599368404,-15500,-5048,3756,6,A
1781599368426,-14856,-3924,3696,6,A
1781599368447,-15016,-3876,3528,6,A
1781599368469,-15748,-4300,3252,6,A
1781599368490,-16568,-5128,3696,6,A
1781599368512,-16048,-5820,3964,6,A
1781599368534,-15624,-5612,4312,6,A
1781599368556,-15508,-5144,4080,6,A
1781599368577,-15432,-4812,4560,6,A
1781599368598,-15148,-4504,4328,6,A
1781599368620,-15084,-4428,3736,6,A
1781599368641,-15168,-4572,3552,6,A
1781599368664,-15008,-4680,4104,6,A
1781599368686,-14556,-4496,4464,6,A
1781599368706,-14880,-4740,4504,6,A
1781599368728,-16164,-5024,4496,6,A
1781599368750,-16756,-5248,4808,6,A
1781599368771,-16256,-5476,5376,6,A
1781599368794,-15484,-5080,5648,6,A
1781599368815,-15156,-4380,4496,6,A
1781599368837,-15240,-4872,4160,6,A
1781599368858,-15216,-4640,4132,6,A
1781599368880,-15076,-4932,4036,6,A
1781599368901,-15116,-5468,3996,6,A
1781599368923,-13580,-10120,1196,6,A
1781599368945,-16168,-4360,1860,6,A
1781599368967,-16972,-5212,4548,6,A
1781599368988,-15856,-4436,5552,6,A
1781599369009,-15452,-1384,7360,6,A
1781599369031,-15572,-7596,7096,6,A
1781599369053,-14864,-6340,8384,6,A
1781599369075,-16052,-3568,6228,6,A
1781599369096,-14416,-3276,5628,6,A
1781599369118,-13124,-2892,4736,6,A
1781599369140,-15572,-3564,5804,6,A
1781599369161,-15432,-3648,5328,6,A
1781599369183,-15212,-2280,4592,6,A
1781599369204,-19004,-140,2924,6,A
1781599369226,-16876,228,5504,6,A
1781599369248,-16864,-2544,7252,6,A
1781599369269,-12160,-6052,3452,6,A
1781599369291,-15000,-4080,5308,6,A
1781599369313,-16144,-5084,4344,6,A
1781599369335,-15416,-5048,4700,6,A
1781599369356,-14980,-3204,5764,6,A
1781599369378,-15040,-4668,4680,6,A
1781599369399,-15768,-5232,4816,6,A
1781599369421,-15948,-2852,3980,6,A
1781599369442,-15060,-6864,3080,6,A
1781599369464,-15968,-6336,2676,6,A
1781599369485,-16572,-5656,5516,6,A
1781599369507,-16960,-6236,8396,6,A
1781599369529,-16220,-5712,6024,6,A
1781599369551,-17896,-3940,6728,6,A
1781599369571,-17960,-5532,5948,6,A
1781599369594,-15724,-3880,4492,6,A
1781599369616,-14060,-3840,4264,6,A
1781599369637,-14036,-3272,5144,6,A
1781599369659,-14016,-3912,6560,6,A
1781599369681,-13108,-5120,7112,6,A
1781599369702,-11752,-5468,5372,6,A
1781599369724,-11460,-7520,5684,6,A
1781599369745,-12516,-8664,8288,6,A
1781599369767,-12748,-9140,8664,6,A
1781599369788,-12408,-8984,8560,6,A
1781599369810,-12044,-9612,8176,6,A
1781599369832,-12028,-10864,9688,6,A
1781599369853,-11052,-11836,8776,6,A
1781599369875,-10212,-12768,7484,6,A
1781599369897,-10016,-13480,7656,6,A
1781599369919,-8848,-13476,8376,6,A
1781599369941,-7720,-12016,7132,6,A
1781599369962,-5032,-10032,5536,6,A
1781599369983,-2640,-7764,2912,6,A
1781599370005,-2124,-10636,3700,6,A
1781599370027,-3072,-11824,5388,6,A
1781599370049,-3540,-11740,5956,6,A
1781599370070,-2524,-12316,5204,6,A
1781599370092,1348,-15236,4644,6,A
1781599370114,1120,-12340,1868,6,A
1781599370135,2568,-10848,-156,6,A
1781599370156,2008,-15116,1516,6,A
1781599370179,2316,-20064,1792,6,A
1781599370200,3996,-18792,684,6,A
1781599370220,2628,-18280,936,6,A
1781599370243,1656,-24064,1876,6,A
1781599370265,2492,-28792,5268,6,A
1781599370287,1144,-28896,7592,6,A
1781599370308,556,-24324,5192,6,A
1781599370331,-1140,-20352,4456,6,A
1781599370352,-2436,-19420,4992,6,A
1781599370373,-3040,-12236,5008,6,A
1781599370395,-4432,-8012,5024,6,A
1781599370417,-3068,-5768,2996,6,A
1781599370438,-956,-6068,1444,6,A
1781599370460,1120,-5232,1004,6,A
1781599370481,1368,-6824,1900,6,A
1781599370502,-28,-7036,2692,6,A
1781599370525,-1240,-10016,3632,6,A
1781599370547,1200,-17676,4684,6,A
1781599370568,2752,-21520,5208,6,A
1781599370590,-1064,-20892,8376,6,A
1781599370611,-4560,-23704,13456,6,A
1781599370634,-3828,-24492,14524,6,A
1781599370655,-1688,-20184,10752,6,A
1781599370676,-4852,-21936,13392,6,A
1781599370698,-4636,-16860,11396,6,A
1781599370720,-2704,-17896,7288,6,A
1781599370741,-2800,-16760,5172,6,A
1781599370762,-2060,-12332,3208,6,A
1781599370785,-2832,-10392,4480,6,A
1781599370805,-3604,-8268,4472,6,A
1781599370827,-2992,-7932,4488,6,A
1781599370850,-2004,-3000,4916,6,A
1781599370871,984,-9652,3272,6,A
1781599370892,-360,-7556,2572,6,A
1781599370914,-2032,-6192,5640,6,A
1781599370936,-4216,-11636,5936,6,A
1781599370958,-4268,-18840,12540,6,A
1781599370980,-1340,-16224,10244,6,A
1781599371001,-876,-17312,11476,6,A
1781599371022,-2964,-18288,17108,6,A
1781599371044,-2772,-17032,19520,6,A
1781599371065,-796,-16276,17296,6,A
1781599371087,308,-15452,14452,6,A
1781599371109,-1064,-11968,13208,6,A
1781599371131,-2964,-9272,12668,6,A
1781599371152,-3912,-8092,12728,6,A
1781599371173,-4000,-7364,12768,6,A
1781599371195,-3052,-7968,11100,6,A
1781599371217,-3320,-6844,8980,6,A
1781599371238,-4168,-8420,9204,6,A
1781599371260,-4004,-15996,9152,6,A
1781599371281,-136,-16568,9656,6,A
1781599371303,2608,-20816,9400,6,A
1781599371325,5440,-23780,9856,6,A
1781599371346,3472,-22480,10860,6,A
1781599371368,3892,-19208,9632,6,A
1781599371390,2696,-14880,7728,6,A
1781599371411,1020,-12232,8648,6,A
1781599371433,-144,-11196,9356,6,A
1781599371454,1076,-9240,8256,6,A
1781599371475,1404,-7040,5824,6,A
1781599371497,792,-6288,6336,6,A
1781599371521,-516,-5028,7356,6,A
1781599371541,-1840,-3784,7692,6,A
1781599371563,-2484,-2856,7924,6,A
1781599371584,-2488,-7236,9132,6,A
1781599371607,-3888,-20692,14660,6,A
1781599371628,-1896,-20216,16908,6,A
1781599371650,2456,-19364,12544,6,A
1781599371671,1344,-20880,14288,6,A
1781599371694,-928,-17208,16580,6,A
1781599371716,-1740,-14148,14660,6,A
1781599371737,-1940,-13028,13872,6,A
1781599371759,-1716,-10364,11872,6,A
1781599371781,-1740,-9468,11284,6,A
1781599371802,-1840,-7940,10896,6,A
1781599371824,-1672,-7252,9952,6,A
1781599371846,-2200,-6336,9420,6,A
1781599371867,-1500,-5000,8252,6,A
1781599371888,-1792,-5576,7620,6,A
1781599371911,-2832,-4472,7200,6,A
1781599371932,-4648,-9724,8812,6,A
1781599371954,-3924,-16536,10492,6,A
1781599371976,-2516,-21396,12916,6,A
1781599371998,-2352,-19120,14584,6,A
1781599372019,-1012,-21116,14368,6,A
1781599372041,-1816,-18556,14972,6,A
1781599372063,-1824,-18420,14896,6,A
1781599372084,-960,-15644,13424,6,A
1781599372105,416,-13108,9544,6,A
1781599372127,-172,-10104,8992,6,A
1781599372149,-1656,-9688,9908,6,A
1781599372170,-1008,-6680,8344,6,A
1781599372191,-396,-6288,7828,6,A
1781599372213,112,-5724,7060,6,A
1781599372235,296,-4092,5420,6,A
1781599372256,420,-3996,5452,6,A
1781599372278,-368,-6476,5128,6,A
1781599372300,-4892,-13140,8796,6,A
1781599372321,-6740,-23108,13976,6,A
1781599372343,-2548,-23588,17256,6,A
1781599372364,-1016,-18312,13400,6,A
1781599372386,-1188,-17048,16672,6,A
1781599372408,-3436,-13352,17216,6,A
1781599372430,-2384,-12820,14032,6,A
1781599372451,-2620,-11080,14424,6,A
1781599372472,-2428,-10760,14352,6,A
1781599372495,-2752,-9088,11368,6,A
1781599372516,-1684,-7612,10656,6,A
1781599372538,-2764,-8568,11400,6,A
1781599372560,-2280,-7872,10276,6,A
1781599372581,-1452,-8276,9444,6,A
1781599372602,-1400,-8040,8448,6,A
1781599372623,-512,-8608,6792,6,A
1781599372645,-1416,-9000,8288,6,A
1781599372667,-2960,-10456,9668,6,A
1781599372689,-4172,-14316,12612,6,A
1781599372710,-2516,-16600,11448,6,A
1781599372732,-1804,-23296,14304,6,A
1781599372754,-1096,-20364,14508,6,A
1781599372776,-380,-17880,11212,6,A
1781599372797,-2004,-17016,12688,6,A
1781599372819,-696,-13012,10420,6,A
1781599372840,-2260,-10628,10660,6,A
1781599372863,-2268,-8280,10864,6,A
1781599372884,-2000,-7324,8980,6,A
1781599372906,-2276,-7304,9792,6,A
1781599372927,-2396,-7332,8472,6,A
1781599372949,-1492,-6536,7472,6,A
1781599372970,-1508,-7164,7128,6,A
1781599372992,-2240,-8664,7948,6,A
1781599373014,-4180,-11312,9108,6,A
1781599373035,-4820,-15100,10332,6,A
1781599373056,-4692,-17020,11616,6,A
1781599373078,-4560,-22080,12724,6,A
1781599373100,-3864,-20076,12772,6,A
1781599373122,-3256,-21472,13560,6,A
1781599373143,-2564,-15408,11856,6,A
1781599373165,-3060,-15128,10896,6,A
1781599373187,-2984,-10488,11424,6,A
1781599373209,-1768,-7060,9328,6,A
1781599373230,-2172,-7440,10512,6,A
1781599373252,-2600,-6636,9180,6,A
1781599373273,-2096,-5708,8488,6,A
1781599373295,-1668,-5184,7176,6,A
1781599373316,-2116,-3800,6388,6,A
1781599373338,-3080,-6792,5288,6,A
1781599373360,-4724,-12832,6772,6,A
1781599373381,-6696,-19404,11696,6,A
1781599373404,-5060,-19880,10832,6,A
1781599373425,-2488,-21324,11944,6,A
1781599373447,-2100,-21988,13596,6,A
1781599373468,-2460,-20352,13492,6,A
1781599373490,-2856,-17692,12424,6,A
1781599373511,-2560,-14916,10712,6,A
1781599373535,-2484,-14388,10060,6,A
1781599373555,-3424,-14396,11740,6,A
1781599373577,-3884,-12224,11504,6,A
1781599373598,-3152,-10000,9872,6,A
1781599373620,-2092,-8992,9572,6,A
1781599373641,-3332,-7848,9972,6,A
1781599373662,-1116,-8148,7584,6,A
1781599373685,-1852,-8216,8496,6,A
1781599373706,-976,-6088,7224,6,A
1781599373727,-1000,-5784,6100,6,A
1781599373750,-1380,-6352,5284,6,A
1781599373771,-5184,-11700,9168,6,A
1781599373793,-6640,-18036,12516,6,A
1781599373815,-3208,-21956,13332,6,A
1781599373836,20,-19628,9692,6,A
1781599373857,676,-19048,9616,6,A
1781599373880,-1728,-17400,11848,6,A
1781599373901,-1900,-14860,11468,6,A
1781599373923,-1460,-13464,9976,6,A
1781599373945,-2020,-12516,10520,6,A
1781599373965,-2796,-11372,10388,6,A
1781599373988,-2864,-11520,10812,6,A
1781599374010,-2836,-11024,9804,6,A
1781599374031,-2784,-10892,9688,6,A
1781599374052,-2396,-10860,8660,6,A
1781599374075,-2460,-10792,8780,6,A
1781599374096,-2652,-10900,8764,6,A
1781599374118,-3284,-10404,8888,6,A
1781599374139,-4244,-11440,10296,6,A
1781599374160,-3372,-13756,10492,6,A
1781599374182,-2644,-18772,10944,6,A
1781599374204,-2524,-15916,11144,6,A
1781599374226,-2372,-14748,10516,6,A
1781599374248,-2584,-14404,10440,6,A
1781599374269,-2244,-13056,9796,6,A
1781599374291,-2052,-12584,9440,6,A
1781599374312,-2504,-12644,9620,6,A
1781599374334,-2460,-12784,9308,6,A
1781599374355,-2264,-12656,8672,6,A
1781599374378,-2268,-12548,8528,6,A
1781599374399,-2728,-12700,8776,6,A
1781599374421,-3296,-13068,9344,6,A
1781599374442,-3064,-13396,9084,6,A
1781599374463,-2588,-14728,8924,6,A
1781599374486,-2712,-14268,9140,6,A
1781599374507,-3008,-13668,9384,6,A
1781599374528,-3100,-13556,9608,6,A
1781599374550,-2568,-13100,9024,6,A
1781599374572,-2628,-13156,9316,6,A
1781599374593,-2788,-13156,9572,6,A
1781599374615,-2724,-13272,9508,6,A
1781599374636,-2812,-13660,9624,6,A
1781599374658,-2784,-13616,9580,6,A
1781599374681,-2592,-13636,9332,6,A
1781599374702,-2744,-13764,9476,6,A
1781599374723,-2756,-13868,9216,6,A
1781599374745,-2800,-13764,9068,6,A
1781599374767,-2440,-13628,8652,6,A
1781599374788,-2436,-13328,8624,6,A
1781599374810,-2824,-13144,9048,6,A
1781599374831,-3072,-13120,9316,6,A
1781599374854,-3056,-13124,9348,6,A
1781599374876,-3016,-13116,9428,6,A
1781599374896,-2984,-13320,9364,6,A
1781599374919,-2908,-13208,9496,6,A
1781599374940,-2912,-13348,9372,6,A
1781599374962,-3036,-13352,9844,6,A
1781599374984,-2852,-13368,9252,6,A
1781599375005,-2976,-13456,9620,6,A
1781599375026,-3072,-13312,9600,6,A
1781599375048,-3036,-13424,9484,6,A
1781599375070,-3128,-13216,9580,6,A
1781599375091,-3056,-13256,9368,6,A
1781599375114,-3108,-13228,9324,6,A
1781599375135,-3024,-13280,9208,6,A
1781599375158,-2988,-13300,9280,6,A
1781599375179,-2956,-13212,9004,6,A
1781599375200,-3036,-13196,9152,6,A
1781599375221,-3012,-13236,9112,6,A
1781599375243,-3148,-13304,9340,6,A
1781599375264,-3152,-13420,9472,6,A
1781599375287,-3172,-13508,9472,6,A
1781599375308,-3140,-13248,9316,6,A
1781599375330,-3140,-13080,9280,6,A
1781599375351,-3156,-12932,9404,6,A
1781599375373,-3112,-12892,9476,6,A
1781599375395,-3028,-13220,9436,6,A
1781599375416,-2900,-13452,9328,6,A
1781599375438,-2944,-13324,9532,6,A
1781599375460,-3160,-13028,9464,6,A
1781599375482,-2732,-13068,9240,6,A
1781599375503,-2968,-13156,9344,6,A
1781599375525,-3332,-13048,9528,6,A
1781599375547,-3352,-13076,9532,6,A
1781599375568,-3192,-13368,9572,6,A
1781599375590,-3092,-13444,9812,6,A
1781599375611,-3200,-13440,9544,6,A
1781599375632,-3280,-13176,9552,6,A
1781599375655,-3272,-13016,9552,6,A
1781599375677,-3260,-12992,9588,6,A
1781599375698,-3212,-12852,9444,6,A
1781599375720,-3184,-12920,9436,6,A
1781599375741,-3272,-13112,9624,6,A
1781599375763,-3240,-13268,9524,6,A
1781599375784,-3224,-13108,9740,6,A
1781599375806,-3228,-13188,9552,6,A
1781599375828,-3212,-13068,9648,6,A
1781599375850,-3196,-13000,9768,6,A
1781599375871,-3140,-13088,9592,6,A
1781599375893,-3168,-13200,9820,6,A
1781599375914,-3260,-13128,9748,6,A
1781599375937,-3208,-13024,9736,6,A
1781599375958,-3228,-13028,9716,6,A
1781599375980,-3388,-13104,9896,6,A
1781599376001,-3524,-12964,9996,6,A
1781599376023,-3468,-12776,9792,6,A
1781599376044,-3148,-12844,9416,6,A
1781599376067,-3308,-13064,9668,6,A
1781599376088,-3452,-13116,9904,6,A
1781599376110,-3520,-12936,9920,6,A
1781599376131,-3500,-12816,9752,6,A
1781599376153,-3148,-12916,9252,6,A
1781599376175,-3264,-12960,9848,6,A
1781599376196,-3532,-12940,10012,6,A
1781599376218,-3804,-12664,10096,6,A
1781599376239,-3780,-12524,9992,6,A
1781599376261,-3776,-12440,9832,6,A
1781599376283,-3680,-12656,10172,6,A
1781599376304,-3784,-12632,10176,6,A
1781599376326,-3792,-12580,9880,6,A
1781599376348,-3660,-12504,9948,6,A
1781599376370,-3384,-12752,9348,6,A
1781599376391,-3492,-12780,10116,6,A
1781599376413,-3712,-12632,10436,6,A
1781599376434,-3528,-12624,9960,6,A
1781599376457,-3384,-12732,9884,6,A
1781599376478,-3500,-12708,10120,6,A
1781599376500,-3644,-12488,10220,6,A
1781599376521,-3716,-12388,10060,6,A
1781599376543,-3592,-13040,9912,6,A
1781599376564,-3568,-13408,9712,6,A
1781599376586,-3444,-13364,9396,6,A
1781599376608,-3780,-12788,10120,6,A
1781599376629,-3916,-12320,9932,6,A
1781599376651,-4036,-12196,9988,6,A
1781599376672,-3772,-12500,9552,6,A
1781599376695,-3648,-13160,9224,6,A
1781599376717,-3168,-13232,9296,6,A
1781599376738,-3792,-12852,10192,6,A
1781599376759,-3984,-12508,10168,6,A
1781599376781,-3936,-12644,10108,6,A
1781599376802,-3444,-13236,9404,6,A
1781599376825,-3748,-12940,10232,6,A
1781599376846,-4056,-12456,10680,6,A
1781599376868,-4072,-12452,10700,6,A
1781599376889,-3884,-12832,10076,6,A
1781599376911,-3892,-12596,10244,6,A
1781599376933,-3916,-12088,10232,6,A
1781599376955,-4004,-12452,10024,6,A
1781599376977,-3612,-12860,10200,6,A
1781599376998,-3756,-13060,10092,6,A
1781599377020,-4132,-13044,10496,6,A
1781599377042,-4404,-12660,10544,6,A
1781599377063,-4216,-12400,10284,6,A
1781599377086,-4300,-12288,10444,6,A
1781599377107,-4144,-12184,10216,6,A
1781599377129,-4156,-12028,10464,6,A
1781599377150,-4140,-11844,10312,6,A
1781599377171,-3912,-12020,9236,6,A
1781599377193,-3888,-12364,9744,6,A
1781599377215,-3832,-12436,9580,6,A
1781599377237,-3712,-12768,9760,6,A
1781599377259,-3368,-13180,9444,6,A
1781599377281,-3004,-13656,9328,6,A
1781599377302,-2584,-13836,9192,6,A
1781599377325,-2392,-14236,9152,6,A
1781599377347,-2896,-14196,9536,6,A
1781599377368,-2632,-13152,9936,6,A
1781599377390,-2748,-13076,9556,6,A
1781599377411,-2996,-12528,9748,6,A
1781599377433,-3168,-12276,10132,6,A
1781599377455,-2108,-13584,8780,6,A
1781599377476,-7584,-14516,14364,6,A
1781599377498,-2780,-14500,9236,6,A
1781599377520,-3796,-13268,10284,6,A
1781599377541,-4392,-12952,10104,6,A
1781599377563,-4240,-13252,9044,6,A
1781599377585,-3720,-13456,8400,6,A
1781599377606,-3732,-13160,9436,6,A
1781599377629,-4084,-12824,9328,6,A
1781599377650,-4512,-12692,9424,6,A
1781599377671,-4032,-12776,8964,6,A
1781599377692,-4000,-12784,9184,6,A
1781599377715,-4044,-12376,9288,6,A
1781599377737,-4004,-12664,9604,6,A
1781599377758,-3688,-12788,9232,6,A
1781599377780,-3048,-13284,8296,6,A
1781599377801,-2868,-14048,8836,6,A
1781599377824,-2552,-14304,8492,6,A
1781599377846,-2288,-14464,8424,6,A
1781599377867,-2708,-14472,8936,6,A
1781599377888,-3076,-14240,9280,6,A
1781599377910,-3040,-14044,9128,6,A
1781599377932,-2504,-13904,8292,6,A
1781599377954,-2104,-13984,7468,6,A
1781599377976,-1920,-14032,7376,6,A
1781599377997,-2012,-13968,6984,6,A
1781599378019,-2280,-14388,7444,6,A
1781599378041,-2380,-14768,7432,6,A
1781599378063,-1848,-14912,6756,6,A
1781599378085,-2024,-15164,6944,6,A
1781599378106,-2624,-14868,7124,6,A
1781599378128,-3148,-14944,8056,6,A
1781599378149,-2724,-14836,7580,6,A
1781599378170,-2492,-14700,7404,6,A
1781599378192,-2748,-14476,7652,6,A
1781599378214,-2484,-14236,7116,6,A
1781599378235,-2416,-14448,7292,6,A
1781599378257,-2644,-14444,7524,6,A
1781599378280,-1344,-18000,4116,6,A
1781599378300,-2792,-14332,8072,6,A
1781599378322,-2388,-13744,6916,6,A
1781599378345,-2072,-14780,6784,6,A
1781599378366,-1608,-15120,6512,6,A
1781599378387,-1300,-15116,6216,6,A
1781599378409,-1120,-15132,5824,6,A
1781599378430,-1232,-15272,5936,6,A
1781599378452,-1336,-15564,5900,6,A
1781599378473,-1312,-15640,6224,6,A
1781599378495,-1608,-15652,6380,6,A
1781599378517,-1912,-15500,6292,6,A
1781599378539,-2160,-15460,6472,6,A
1781599378560,-2180,-15144,6188,6,A
1781599378582,-2316,-14788,6324,6,A
1781599378603,-2464,-14444,6664,6,A
1781599378625,-2828,-14116,6940,6,A
1781599378647,-2644,-14148,7008,6,A
1781599378668,-2040,-14360,6708,6,A
1781599378689,-1600,-14832,6372,6,A
1781599378712,-1492,-15052,6360,6,A
1781599378733,-1312,-15420,6416,6,A
1781599378755,-1304,-15552,6488,6,A
1781599378777,-1128,-15612,6236,6,A
1781599378798,-852,-15392,5980,6,A
1781599378820,-848,-15060,6220,6,A
1781599378841,-1068,-14940,6408,6,A
1781599378863,-1100,-15208,6560,6,A
1781599378885,-1048,-15120,6612,6,A
1781599378906,-972,-15084,6344,6,A
1781599378928,-1452,-14540,6548,6,A
1781599378950,-1320,-15472,7028,6,A
1781599378971,-1168,-14976,6660,6,A
1781599378993,-896,-14752,6260,6,A
1781599379014,-1368,-14836,6484,6,A
1781599379036,-1300,-15048,6468,6,A
1781599379058,-1624,-15064,6588,6,A
1781599379080,-2220,-14908,7408,6,A
1781599379101,-2056,-14604,6916,6,A
1781599379122,-1600,-14688,6672,6,A
1781599379144,-1540,-14588,6468,6,A
1781599379166,-1480,-14876,6516,6,A
1781599379187,-1312,-15084,6368,6,A
1781599379210,-1364,-15064,6388,6,A
1781599379231,-1748,-14940,6720,6,A
1781599379253,-2172,-14720,6908,6,A
1781599379274,-2020,-14688,6608,6,A
1781599379296,-2044,-14708,6840,6,A
1781599379317,-2292,-14712,6788,6,A
1781599379339,-2372,-14776,6756,6,A
1781599379361,-2404,-15120,6768,6,A
1781599379383,-2304,-15052,6680,6,A
1781599379404,-2268,-14920,6684,6,A
1781599379426,-2484,-14648,6780,6,A
1781599379448,-2568,-14572,6800,6,A
1781599379470,-2580,-14652,6816,6,A
1781599379490,-2520,-14840,6836,6,A
1781599379513,-2448,-14688,6896,6,A
1781599379534,-2904,-14508,7388,6,A
1781599379556,-2632,-14620,7296,6,A
1781599379577,-2420,-14936,7324,6,A
1781599379599,-2360,-15012,7240,6,A
1781599379621,-2704,-15352,7384,6,A
1781599379642,-3088,-15312,8280,6,A
1781599379663,-2840,-14956,8036,6,A
1781599379686,-2572,-14536,7700,6,A
1781599379707,-2452,-14936,7512,6,A
1781599379728,-2276,-15264,7536,6,A
1781599379750,-2536,-14888,7044,6,A
1781599379772,-2284,-14876,6836,6,A
1781599379793,-1764,-14560,6256,6,A
1781599379815,-1716,-14356,6428,6,A
1781599379837,-1684,-14136,6636,6,A
1781599379858,-1864,-14532,7412,6,A
1781599379881,-1876,-15176,7860,6,A
1781599379902,-1360,-15428,7684,6,A
1781599379925,-1040,-15112,7576,6,A
1781599379945,-688,-14560,7392,6,A
1781599379967,-240,-14656,7040,6,A
1781599379988,316,-14476,6616,6,A
1781599380010,284,-14340,6448,6,A
1781599380031,528,-14316,6184,6,A
1781599380053,572,-14288,5796,6,A
1781599380074,336,-14144,6224,6,A
1781599380097,-360,-14052,6548,6,A
1781599380118,-388,-14024,6552,6,A
1781599380140,-332,-14328,6608,6,A
1781599380161,-1004,-14324,7440,6,A
1781599380183,-1716,-13756,8196,6,A
1781599380205,-1964,-13684,8344,6,A
1781599380226,-1772,-13624,8548,6,A
1781599380247,-1520,-13804,8176,6,A
1781599380270,-1800,-14100,8452,6,A
1781599380291,-2212,-14252,8564,6,A
1781599380313,-2256,-14572,8524,6,A
1781599380335,-2208,-14756,8216,6,A
1781599380356,-2480,-14788,8344,6,A
1781599380378,-2812,-15012,8284,6,A
1781599380400,-2976,-14972,8144,6,A
1781599380421,-2764,-14644,7796,6,A
1781599380442,-2676,-14120,7496,6,A
1781599380464,-2828,-13852,7480,6,A
1781599380486,-2684,-13932,7348,6,A
1781599380507,-2452,-14304,7316,6,A
1781599380529,-2428,-14740,7496,6,A
1781599380551,-2828,-14732,7956,6,A
1781599380572,-2824,-14492,7832,6,A
1781599380594,-2784,-14524,7984,6,A
1781599380615,-2660,-14352,7796,6,A
1781599380637,-2656,-14156,7812,6,A
1781599380658,-2932,-14228,7736,6,A
1781599380681,-2824,-14556,7928,6,A
1781599380702,-2868,-14540,7940,6,A
1781599380724,-2744,-14116,7680,6,A
1781599380745,-2460,-14120,7468,6,A
1781599380767,-2268,-14628,7456,6,A
1781599380789,-2232,-14820,7396,6,A
1781599380810,-2404,-14552,7612,6,A
1781599380831,-2312,-14192,7392,6,A
1781599380853,-2336,-14348,7508,6,A
1781599380876,-2316,-14708,7812,6,A
1781599380897,-2504,-15060,7956,6,A
1781599380919,-2244,-14824,7524,6,A
1781599380940,-2132,-14552,7336,6,A
1781599380962,-2028,-14644,7132,6,A
1781599380983,-2168,-14880,7300,6,A
1781599381005,-1988,-14708,6980,6,A
1781599381027,-2112,-14580,7012,6,A
1781599381049,-2244,-14808,7076,6,A
1781599381071,-2160,-14760,7064,6,A
1781599381093,-2160,-14624,7028,6,A
1781599381114,-2348,-14452,7252,6,A
1781599381135,-2412,-14272,7160,6,A
1781599381156,-2372,-14416,7272,6,A
1781599381178,-2516,-14672,7300,6,A
1781599381200,-2548,-14776,7348,6,A
1781599381221,-2336,-14648,7096,6,A
1781599381243,-2060,-14584,7024,6,A
1781599381265,-2064,-14556,6976,6,A
1781599381286,-2300,-14688,7140,6,A
1781599381308,-2132,-14716,7088,6,A
1781599381330,-2192,-14672,7204,6,A
1781599381351,-2228,-14772,7108,6,A
1781599381373,-2176,-14716,7224,6,A
1781599381394,-2356,-14712,7268,6,A
1781599381416,-2344,-14628,7164,6,A
1781599381438,-2368,-14568,7236,6,A
1781599381460,-2416,-14404,7320,6,A
1781599381481,-2352,-14484,7256,6,A
1781599381503,-2380,-14752,7232,6,A
1781599381524,-2368,-14828,7264,6,A
1781599381546,-2376,-14776,7332,6,A
1781599381567,-2408,-14740,7276,6,A
1781599381590,-2392,-14620,7260,6,A
1781599381611,-2196,-14424,7044,6,A
1781599381634,-2272,-14608,7188,6,A
1781599381654,-2200,-14656,6936,6,A
1781599381676,-2192,-14728,6916,6,A
1781599381698,-2060,-14720,6988,6,A
1781599381719,-2124,-14484,6852,6,A
1781599381740,-2108,-14516,6944,6,A
1781599381762,-2064,-14820,6880,6,A
1781599381784,-2040,-14780,6876,6,A
1781599381806,-2120,-14824,6892,6,A
1781599381827,-1860,-14884,6740,6,A
1781599381848,-1944,-14880,6824,6,A
1781599381870,-2036,-14776,6828,6,A
1781599381892,-1908,-14780,6708,6,A
1781599381914,-1852,-14660,6820,6,A
1781599381936,-1984,-14768,6880,6,A
1781599381957,-2056,-14952,6936,6,A
1781599381979,-2100,-14992,7008,6,A
1781599382001,-1996,-14876,6952,6,A
1781599382022,-2064,-14776,7032,6,A
1781599382044,-1940,-14836,6940,6,A
1781599382065,-1872,-14864,6740,6,A
1781599382087,-1888,-14956,6980,6,A
1781599382109,-1936,-14996,7028,6,A
1781599382130,-1856,-14996,6796,6,A
1781599382152,-1916,-15084,6992,6,A
1781599382174,-1860,-15048,6888,6,A
1781599382196,-1852,-14848,6852,6,A
1781599382217,-1976,-14788,6904,6,A
1781599382238,-1768,-14880,6868,6,A
1781599382260,-1732,-14872,6896,6,A
1781599382282,-1728,-14900,6840,6,A
1781599382304,-1824,-14844,6860,6,A
1781599382325,-1868,-15068,6456,6,A
1781599382347,-1668,-14896,6700,6,A
1781599382369,-1752,-14856,6568,6,A
1781599382391,-1696,-14836,6904,6,A
1781599382412,-1784,-14884,6752,6,A
1781599382433,-1684,-14920,6808,6,A
1781599382455,-1912,-14880,6796,6,A
1781599382477,-1880,-15176,6888,6,A
1781599382498,-1796,-14740,6456,6,A
1781599382520,-1872,-14828,6380,6,A
1781599382542,-1820,-14812,6460,6,A
1781599382564,-1996,-14912,6688,6,A
1781599382585,-1732,-15236,6448,6,A
1781599382607,-1724,-15092,6528,6,A
1781599382629,-1808,-14992,6592,6,A
1781599382649,-1804,-14772,6620,6,A
1781599382672,-1776,-14916,6696,6,A
1781599382693,-1828,-14932,6532,6,A
1781599382714,-1760,-15020,6696,6,A
1781599382737,-1784,-14980,6668,6,A
1781599382758,-1856,-14828,6596,6,A
1781599382780,-1776,-15004,6564,6,A
1781599382801,-1880,-14916,6748,6,A
1781599382823,-1900,-14800,6732,6,A
1781599382844,-1732,-14676,6488,6,A
1781599382866,-1620,-14876,6572,6,A
1781599382888,-1816,-14808,6732,6,A
1781599382910,-1848,-14648,6704,6,A
1781599382932,-1660,-14636,6688,6,A
1781599382954,-1724,-14924,6796,6,A
1781599382976,-1684,-15096,6760,6,A
1781599382998,-1720,-15240,6928,6,A
1781599383020,-1572,-14912,6680,6,A
1781599383041,-1756,-14736,6884,6,A
1781599383063,-1640,-14932,6892,6,A
1781599383084,-1668,-14788,6792,6,A
1781599383105,-1660,-14824,6860,6,A
1781599383128,-1700,-14840,6880,6,A
1781599383149,-1908,-14928,6924,6,A
1781599383171,-1864,-14980,6824,6,A
1781599383192,-1804,-14896,6736,6,A
1781599383214,-1740,-14944,6712,6,A
1781599383235,-1812,-14924,6868,6,A
1781599383258,-1772,-14780,6716,6,A
1781599383278,-1676,-15180,6864,6,A
1781599383301,-1576,-15028,6732,6,A
1781599383322,-1700,-14884,6680,6,A
1781599383344,-1756,-14908,6792,6,A
1781599383365,-1900,-14852,6892,6,A
1781599383387,-1900,-14912,7008,6,A
1781599383408,-2212,-14556,7372,6,A
1781599383430,-2288,-14796,7456,6,A
1781599383452,-2136,-14572,7112,6,A
1781599383474,-2368,-14752,7356,6,A
1781599383496,-2320,-14716,7460,6,A
1781599383517,-2164,-14316,6928,6,A
1781599383538,-2588,-14688,7508,6,A
1781599383560,-2720,-14504,7396,6,A
1781599383582,-2316,-14684,7140,6,A
1781599383603,-2344,-14640,7100,6,A
1781599383625,-2472,-14560,7264,6,A
1781599383646,-2616,-14712,7500,6,A
1781599383668,-2160,-14636,6956,6,A
1781599383690,-2308,-14708,7108,6,A
1781599383712,-2416,-14772,7052,6,A
1781599383733,-2120,-14688,6860,6,A
1781599383755,-2240,-14668,6968,6,A
1781599383777,-2304,-14648,7024,6,A
1781599383799,-2160,-14944,6852,6,A
1781599383820,-2224,-14796,7012,6,A
1781599383841,-2236,-14740,6908,6,A
1781599383863,-2096,-14896,6980,6,A
1781599383885,-2032,-14964,6820,6,A
1781599383907,-2220,-14900,6884,6,A
1781599383928,-2168,-14888,6972,6,A
1781599383950,-2096,-14704,6928,6,A
1781599383972,-2120,-14824,6936,6,A
1781599383994,-2348,-14860,6856,6,A
1781599384016,-2244,-14888,6812,6,A
1781599384037,-2220,-14960,6800,6,A
1781599384058,-2100,-14856,6824,6,A
1781599384080,-1944,-14664,6668,6,A
1781599384102,-2080,-14548,6680,6,A
1781599384124,-2144,-14708,6864,6,A
1781599384145,-2172,-14896,6976,6,A
